Wavelength	Real Intensity
339.870000	0.000000
340.250000	0.000000
340.630000	0.000000
341.020000	0.000000
341.400000	0.000000
341.780000	0.000000
342.160000	0.000000
342.550000	0.000000
342.930000	0.000000
343.310000	0.000000
343.690000	0.000000
344.080000	0.000000
344.460000	0.000000
344.840000	0.000000
345.220000	0.000000
345.600000	0.000000
345.990000	0.000000
346.370000	0.000000
346.750000	0.000000
347.130000	0.000000
347.510000	0.000000
347.900000	0.000000
348.280000	0.000000
348.660000	0.000000
349.040000	0.000000
349.420000	0.000000
349.800000	0.000000
350.190000	0.000000
350.570000	0.000000
350.950000	0.000000
351.330000	0.000000
351.710000	0.000000
352.090000	0.000000
352.470000	0.000000
352.860000	0.000000
353.240000	0.000000
353.620000	0.000000
354.000000	0.000000
354.380000	0.000000
354.760000	0.000000
355.140000	0.000000
355.520000	0.000000
355.900000	0.000000
356.280000	0.000000
356.670000	0.000000
357.050000	0.000000
357.430000	0.000000
357.810000	0.000000
358.190000	0.000000
358.570000	0.000000
358.950000	0.000000
359.330000	0.000000
359.710000	0.000000
360.090000	0.000000
360.470000	0.000000
360.850000	0.000000
361.230000	0.000000
361.610000	0.000000
361.990000	0.000000
362.370000	0.000000
362.750000	0.000000
363.130000	0.000000
363.510000	0.000000
363.890000	0.000000
364.270000	0.000000
364.650000	0.000000
365.030000	0.000000
365.410000	0.000000
365.790000	0.000000
366.170000	0.000000
366.550000	0.000000
366.930000	0.000000
367.310000	0.000000
367.690000	0.000000
368.070000	0.000000
368.450000	0.000000
368.830000	0.000000
369.210000	0.000000
369.590000	0.000000
369.970000	0.000000
370.350000	0.000000
370.730000	0.000000
371.110000	0.000000
371.490000	0.820000
371.870000	0.000000
372.250000	0.000000
372.620000	0.000000
373.000000	0.000000
373.380000	0.000000
373.760000	0.000000
374.140000	0.000000
374.520000	0.000000
374.900000	0.000000
375.280000	0.000000
375.660000	0.000000
376.030000	0.000000
376.410000	0.000000
376.790000	0.617500
377.170000	0.000000
377.550000	0.137500
377.930000	0.205000
378.310000	0.000000
378.680000	0.000000
379.060000	0.000000
379.440000	0.820000
379.820000	0.000000
380.200000	0.000000
380.580000	0.000000
380.950000	0.000000
381.330000	0.000000
381.710000	0.000000
382.090000	0.000000
382.470000	0.750000
382.850000	1.845000
383.220000	0.000000
383.600000	0.000000
383.980000	0.000000
384.360000	0.952500
384.730000	5.190000
385.110000	6.345000
385.490000	3.687500
385.870000	13.655000
386.250000	23.347500
386.620000	25.462500
387.000000	37.137500
387.380000	50.312500
387.760000	50.520000
388.130000	50.047500
388.510000	67.177500
388.890000	84.107500
389.260000	131.542500
389.640000	170.802500
390.020000	213.400000
390.400000	255.452500
390.770000	244.122500
391.150000	316.747500
391.530000	375.122500
391.900000	375.945000
392.280000	360.985000
392.660000	324.945000
393.040000	219.470000
393.410000	108.605000
393.790000	103.630000
394.170000	222.477500
394.540000	373.070000
394.920000	506.395000
395.300000	621.827500
395.670000	687.575000
396.050000	675.625000
396.420000	552.200000
396.800000	362.700000
397.180000	284.397500
397.550000	440.927500
397.930000	717.957500
398.310000	947.455000
398.680000	1084.947500
399.060000	1169.797500
399.440000	1261.275000
399.810000	1323.262500
400.190000	1400.945000
400.560000	1424.225000
400.940000	1479.867500
401.320000	1519.325000
401.690000	1633.052500
402.070000	1721.657500
402.440000	1771.837500
402.820000	1809.037500
403.190000	1759.482500
403.570000	1774.770000
403.950000	1863.927500
404.320000	1940.382500
404.700000	1848.562500
405.070000	1933.687500
405.450000	1987.285000
405.820000	2042.717500
406.200000	2011.857500
406.570000	2008.985000
406.950000	2037.390000
407.320000	2118.147500
407.700000	2168.257500
408.070000	2292.085000
408.450000	2305.742500
408.820000	2537.165000
409.200000	2597.370000
409.570000	2590.270000
409.950000	2421.997500
410.320000	2294.342500
410.700000	2310.862500
411.070000	2528.152500
411.450000	2821.757500
411.820000	2903.952500
412.200000	2922.520000
412.570000	2945.390000
412.950000	2878.830000
413.320000	2820.050000
413.700000	2935.832500
414.070000	3007.715000
414.450000	3017.545000
414.820000	3017.682500
415.190000	3012.422500
415.570000	3048.882500
415.940000	3185.617500
416.320000	3244.050000
416.690000	3366.655000
417.070000	3340.992500
417.440000	3249.575000
417.810000	3141.310000
418.190000	3197.697500
418.560000	3241.322500
418.940000	3252.317500
419.310000	3423.660000
419.680000	3440.657500
420.060000	3399.155000
420.430000	3387.550000
420.800000	3589.127500
421.180000	3874.547500
421.550000	3886.772500
421.930000	3935.647500
422.300000	3867.045000
422.670000	3611.595000
423.050000	3640.815000
423.420000	3724.577500
423.790000	4007.670000
424.170000	4093.347500
424.540000	4277.322500
424.910000	4207.010000
425.290000	4255.407500
425.660000	4256.705000
426.030000	4262.230000
426.400000	4516.452500
426.780000	4583.290000
427.150000	4505.805000
427.520000	4389.000000
427.900000	4421.292500
428.270000	4790.057500
428.640000	4829.315000
429.020000	4744.190000
429.390000	4660.155000
429.760000	4450.235000
430.130000	4168.022500
430.510000	3807.995000
430.880000	3656.922500
431.250000	3934.285000
431.620000	4773.065000
432.000000	5547.942500
432.370000	5974.400000
432.740000	5717.457500
433.110000	5712.807500
433.480000	6118.515000
433.860000	5925.257500
434.230000	5373.327500
434.600000	5436.465000
434.970000	5827.832500
435.350000	6155.240000
435.720000	6209.372500
436.090000	6448.437500
436.460000	6680.475000
436.830000	6753.040000
437.210000	6637.400000
437.580000	6373.485000
437.950000	6340.172500
438.320000	5928.395000
438.690000	5739.500000
439.060000	5803.600000
439.440000	6182.412500
439.810000	6480.115000
440.180000	6606.542500
440.550000	6437.997500
440.920000	6411.095000
441.290000	6667.305000
441.660000	6876.055000
442.030000	7075.395000
442.410000	7110.002500
442.780000	7301.757500
443.150000	7212.607500
443.520000	7222.297500
443.890000	7221.407500
444.260000	7329.000000
444.630000	7504.367500
445.000000	7643.840000
445.370000	7542.460000
445.740000	7283.737500
446.120000	7080.307500
446.490000	7252.200000
446.860000	7547.170000
447.230000	7933.012500
447.600000	8331.205000
447.970000	8503.915000
448.340000	8391.957500
448.710000	8472.922500
449.080000	8507.537500
449.450000	8717.455000
449.820000	8822.925000
450.190000	9171.482500
450.560000	9728.057500
450.930000	9828.955000
451.300000	10049.250000
451.670000	10011.695000
452.040000	10013.747500
452.410000	10088.092500
452.780000	9778.367500
453.150000	9567.152500
453.520000	9534.385000
453.890000	10003.302500
454.260000	10639.952500
454.630000	10974.110000
455.000000	10821.122500
455.370000	10777.645000
455.740000	11010.492500
456.110000	11684.615000
456.480000	11804.970000
456.850000	12204.120000
457.220000	12182.407500
457.590000	12625.387500
457.960000	12659.657500
458.330000	12495.617500
458.700000	12453.350000
459.070000	12684.095000
459.430000	12745.327500
459.800000	12901.932500
460.170000	12901.857500
460.540000	13411.672500
460.910000	13465.190000
461.280000	13851.575000
461.650000	14041.010000
462.020000	14227.172500
462.390000	14319.670000
462.760000	14545.835000
463.120000	14770.287500
463.490000	14638.882500
463.860000	14595.052500
464.230000	14478.252500
464.600000	14048.725000
464.970000	13994.447500
465.340000	14222.595000
465.700000	14617.445000
466.070000	14804.632500
466.440000	14748.175000
466.810000	14419.472500
467.180000	14030.365000
467.550000	14466.170000
467.910000	14730.087500
468.280000	14690.965000
468.650000	15009.627500
469.020000	15097.287500
469.390000	15282.832500
469.750000	15382.980000
470.120000	15104.590000
470.490000	14558.935000
470.860000	14687.412500
471.230000	14893.575000
471.590000	15288.362500
471.960000	15875.237500
472.330000	16395.762500
472.700000	16549.775000
473.060000	16289.407500
473.430000	15810.935000
473.800000	16249.202500
474.170000	16493.320000
474.530000	17021.492500
474.900000	17202.592500
475.270000	17479.340000
475.640000	17202.735000
476.000000	17039.642500
476.370000	16961.830000
476.740000	17224.232500
477.110000	17268.200000
477.470000	17753.982500
477.840000	18433.355000
478.210000	18796.260000
478.570000	18579.787500
478.940000	18408.917500
479.310000	18562.580000
479.670000	19335.897500
480.040000	19701.387500
480.410000	19345.730000
480.770000	19663.705000
481.140000	19670.395000
481.510000	20059.922500
481.870000	20456.072500
482.240000	20827.837500
482.610000	20755.077500
482.970000	20746.470000
483.340000	20987.790000
483.710000	20891.740000
484.070000	20913.927500
484.440000	20994.957500
484.800000	21286.307500
485.170000	21239.142500
485.540000	20858.972500
485.900000	19542.807500
486.270000	17642.570000
486.630000	17630.555000
487.000000	18730.855000
487.370000	20300.347500
487.730000	21028.062500
488.100000	22055.672500
488.460000	22454.002500
488.830000	22346.005000
489.190000	22015.047500
489.560000	22476.800000
489.930000	23675.405000
490.290000	24201.455000
490.660000	23972.157500
491.020000	23694.385000
491.390000	23868.665000
491.750000	23409.105000
492.120000	22723.647500
492.480000	22221.005000
492.850000	23293.667500
493.210000	24490.775000
493.580000	24570.980000
493.940000	23746.875000
494.310000	24233.747500
494.670000	24879.610000
495.040000	25379.722500
495.400000	25501.990000
495.770000	24645.455000
496.130000	24685.130000
496.500000	24837.695000
496.860000	25260.265000
497.230000	25321.287500
497.590000	25123.525000
497.960000	25174.180000
498.320000	24111.072500
498.690000	23545.085000
499.050000	23889.760000
499.410000	24609.897500
499.780000	24697.815000
500.140000	24486.740000
500.510000	23732.342500
500.870000	23418.585000
501.240000	23215.637500
501.600000	23117.672500
501.960000	22840.310000
502.330000	23250.180000
502.690000	23506.040000
503.060000	24039.535000
503.420000	24331.710000
503.780000	23976.527500
504.150000	23336.057500
504.510000	23223.832500
504.880000	23889.482500
505.240000	24184.800000
505.600000	24331.917500
505.970000	24964.940000
506.330000	25050.415000
506.690000	24713.727500
507.060000	24364.612500
507.420000	24142.210000
507.780000	23872.697500
508.150000	23500.645000
508.510000	23534.647500
508.870000	23810.022500
509.240000	24780.150000
509.600000	24853.330000
509.960000	24379.292500
510.330000	24371.857500
510.690000	24300.512500
511.050000	24257.092500
511.410000	24892.377500
511.780000	25223.125000
512.140000	25249.545000
512.500000	24889.097500
512.870000	24390.420000
513.230000	24115.655000
513.590000	24562.175000
513.950000	24243.585000
514.320000	24127.802500
514.680000	24062.200000
515.040000	24464.622500
515.400000	24790.255000
515.770000	25001.330000
516.130000	25150.082500
516.490000	24279.550000
516.850000	22275.145000
517.220000	20628.580000
517.580000	21442.440000
517.940000	23074.330000
518.300000	23482.825000
518.660000	22831.500000
519.030000	23022.920000
519.390000	24406.117500
519.750000	25014.102500
520.110000	25631.350000
520.470000	26017.400000
520.830000	25809.867500
521.200000	25867.342500
521.560000	26374.970000
521.920000	26995.575000
522.280000	27035.915000
522.640000	26857.605000
523.000000	26317.830000
523.370000	26227.520000
523.730000	27479.855000
524.090000	28237.667500
524.450000	28883.797500
524.810000	29181.580000
525.170000	28785.902500
525.530000	28777.920000
525.890000	29119.655000
526.260000	28373.032500
526.620000	27217.435000
526.980000	25839.297500
527.340000	26210.242500
527.700000	27643.685000
528.060000	28960.810000
528.420000	29527.542500
528.780000	30107.805000
529.140000	31120.382500
529.500000	31514.285000
529.860000	30839.947500
530.220000	30557.265000
530.590000	31239.782500
530.950000	32364.115000
531.310000	32599.292500
531.670000	32466.930000
532.030000	31973.635000
532.390000	31096.427500
532.750000	29878.907500
533.110000	29479.285000
533.470000	30199.962500
533.830000	31311.260000
534.190000	31708.152500
534.550000	31438.917500
534.910000	31758.400000
535.270000	32177.410000
535.630000	32712.815000
535.990000	33245.840000
536.350000	33128.347500
536.710000	32314.490000
537.070000	31169.750000
537.430000	31631.970000
537.790000	32247.727500
538.150000	33048.132500
538.510000	33085.350000
538.870000	33088.072500
539.220000	32665.240000
539.580000	32076.035000
539.940000	31642.280000
540.300000	31355.565000
540.660000	30893.200000
541.020000	30660.490000
541.380000	31073.487500
541.740000	31780.442500
542.100000	32062.660000
542.460000	32232.780000
542.820000	32079.855000
543.180000	31873.010000
543.530000	31994.257500
543.890000	32395.447500
544.250000	33239.347500
544.610000	33052.645000
544.970000	32946.970000
545.330000	32616.362500
545.690000	33086.572500
546.050000	32501.675000
546.400000	32643.117500
546.760000	32678.412500
547.120000	32731.117500
547.480000	32536.085000
547.840000	31993.847500
548.200000	31842.705000
548.550000	32260.012500
548.910000	32772.205000
549.270000	33075.105000
549.630000	33006.087500
549.990000	32936.727500
550.340000	32598.132500
550.700000	32419.552500
551.060000	32398.182500
551.420000	32286.632500
551.780000	32470.545000
552.130000	32671.452500
552.490000	32467.885000
552.850000	32311.960000
553.210000	32055.972500
553.570000	31677.777500
553.920000	32240.355000
554.280000	32188.262500
554.640000	32149.212500
555.000000	32390.125000
555.350000	32167.515000
555.710000	31801.887500
556.070000	31559.125000
556.420000	31200.595000
556.780000	30705.335000
557.140000	30597.675000
557.500000	30315.190000
557.850000	30754.072500
558.210000	30998.805000
558.570000	30556.585000
558.920000	29972.087500
559.280000	29585.577500
559.640000	29940.685000
559.990000	30173.407500
560.350000	30197.432500
560.710000	30926.107500
561.060000	31719.210000
561.420000	31257.947500
561.780000	30804.387500
562.130000	30293.962500
562.490000	30427.487500
562.850000	30566.957500
563.200000	30564.095000
563.560000	30548.795000
563.920000	30264.060000
564.270000	30261.197500
564.630000	30148.287500
564.980000	30228.770000
565.340000	30286.862500
565.700000	29604.480000
566.050000	28748.290000
566.410000	28794.030000
566.760000	29481.470000
567.120000	29909.350000
567.480000	30149.102500
567.830000	30234.030000
568.190000	29635.810000
568.540000	29256.530000
568.900000	28751.222500
569.250000	28966.197500
569.610000	29134.197500
569.970000	29154.200000
570.320000	29067.435000
570.680000	28388.945000
571.030000	27773.940000
571.390000	27631.192500
571.740000	28235.757500
572.100000	28949.742500
572.450000	29461.187500
572.810000	29456.272500
573.160000	29412.517500
573.520000	29170.307500
573.870000	29075.560000
574.230000	28954.117500
574.580000	28809.670000
574.940000	28681.530000
575.290000	28351.332500
575.650000	28050.555000
576.000000	27925.825000
576.360000	28121.890000
576.710000	28055.667500
577.070000	28157.585000
577.420000	28153.287500
577.780000	27763.290000
578.130000	27270.552500
578.480000	26777.667500
578.840000	26662.027500
579.190000	26421.865000
579.550000	26502.757500
579.900000	26408.962500
580.260000	26661.007500
580.610000	26463.242500
580.960000	26256.257500
581.320000	26232.840000
581.670000	26296.465000
582.030000	26203.897500
582.380000	26031.390000
582.730000	26169.282500
583.090000	25841.130000
583.440000	25945.302500
583.790000	25825.300000
584.150000	25849.807500
584.500000	25937.177500
584.860000	25671.835000
585.210000	25374.260000
585.560000	24898.045000
585.920000	24531.112500
586.270000	24312.670000
586.620000	24676.520000
586.980000	24839.062500
587.330000	25015.732500
587.680000	24803.560000
588.040000	24829.507500
588.390000	24484.767500
588.740000	23480.095000
589.090000	22422.592500
589.450000	21382.225000
589.800000	21710.722500
590.150000	22337.540000
590.510000	23329.572500
590.860000	23718.275000
591.210000	23598.677500
591.560000	23535.397500
591.920000	23280.687500
592.270000	23525.360000
592.620000	23935.152500
592.970000	23815.482500
593.330000	23723.322500
593.680000	23878.355000
594.030000	23904.920000
594.380000	23928.330000
594.740000	23405.005000
595.090000	23188.540000
595.440000	23174.677500
595.790000	23460.845000
596.140000	23734.732500
596.500000	23704.627500
596.850000	23785.242500
597.200000	23732.750000
597.550000	23596.145000
597.900000	23469.382500
598.260000	23303.557500
598.610000	23414.635000
598.960000	23219.945000
599.310000	23564.877500
599.660000	23712.610000
600.010000	23835.285000
600.370000	23818.560000
600.720000	23586.937500
601.070000	23632.462500
601.420000	23714.590000
601.770000	23741.352500
602.120000	23635.332500
602.470000	23621.957500
602.830000	23711.727500
603.180000	24034.820000
603.530000	24342.902500
603.880000	24498.895000
604.230000	24510.427500
604.580000	24660.545000
604.930000	24881.725000
605.280000	24910.880000
605.630000	24880.017500
605.980000	24934.020000
606.330000	24796.462500
606.690000	24892.307500
607.040000	25070.007500
607.390000	25116.430000
607.740000	25208.927500
608.090000	24923.650000
608.440000	24856.472500
608.790000	24875.992500
609.140000	25221.550000
609.490000	25077.577500
609.840000	24988.152500
610.190000	25036.282500
610.540000	24742.942500
610.890000	24941.940000
611.240000	25410.035000
611.590000	25501.580000
611.940000	25400.270000
612.290000	25289.005000
612.640000	25429.490000
612.990000	25455.430000
613.340000	25455.975000
613.690000	25239.370000
614.040000	25108.642500
614.390000	25327.567500
614.740000	25664.800000
615.090000	25905.780000
615.440000	25883.115000
615.790000	25621.797500
616.140000	24952.997500
616.480000	24738.510000
616.830000	24674.135000
617.180000	24797.560000
617.530000	25124.482500
617.880000	25462.945000
618.230000	25735.455000
618.580000	25693.612500
618.930000	25551.615000
619.280000	25508.542500
619.630000	25802.770000
619.980000	26157.745000
620.320000	26369.032500
620.670000	26654.457500
621.020000	26724.902500
621.370000	26509.660000
621.720000	26129.485000
622.070000	26042.925000
622.420000	25843.660000
622.760000	26024.357500
623.110000	25988.927500
623.460000	25889.672500
623.810000	25928.852500
624.160000	25830.485000
624.510000	25622.822500
624.850000	25279.305000
625.200000	25196.302500
625.550000	25083.045000
625.900000	24855.920000
626.250000	25106.592500
626.590000	25426.557500
626.940000	25653.267500
627.290000	25315.007500
627.640000	24740.550000
627.990000	24488.927500
628.330000	24256.210000
628.680000	24473.225000
629.030000	24811.415000
629.380000	24770.185000
629.720000	24435.475000
630.070000	24067.317500
630.420000	24106.710000
630.770000	24413.835000
631.110000	24791.075000
631.460000	24448.715000
631.810000	24234.157500
632.160000	24405.230000
632.500000	24489.880000
632.850000	24846.775000
633.200000	24697.210000
633.540000	24382.975000
633.890000	24228.627500
634.240000	24037.687500
634.580000	24300.240000
634.930000	24270.550000
635.280000	24367.615000
635.630000	24196.405000
635.970000	23849.755000
636.320000	23667.625000
636.670000	23680.727500
637.010000	23656.627500
637.360000	23863.272500
637.700000	23927.645000
638.050000	23773.705000
638.400000	23611.715000
638.740000	23742.237500
639.090000	23610.555000
639.440000	23445.007500
639.780000	23189.837500
640.130000	23076.715000
640.470000	23073.437500
640.820000	23056.240000
641.170000	22851.305000
641.510000	22867.485000
641.860000	23058.972500
642.200000	23070.712500
642.550000	23338.585000
642.900000	23253.732500
643.240000	23075.760000
643.590000	23087.575000
643.930000	23130.302500
644.280000	22978.547500
644.620000	22942.712500
644.970000	23006.952500
645.310000	22682.622500
645.660000	22563.970000
646.000000	22199.025000
646.350000	22042.967500
646.700000	21908.215000
647.040000	21965.897500
647.390000	21964.332500
647.730000	21893.947500
648.080000	22079.627500
648.420000	22258.687500
648.770000	21975.315000
649.110000	21946.372500
649.460000	21428.030000
649.800000	21246.382500
650.140000	21616.310000
650.490000	21921.255000
650.830000	22292.827500
651.180000	22409.900000
651.520000	22136.500000
651.870000	22163.387500
652.210000	22054.987500
652.560000	22130.352500
652.900000	22115.605000
653.250000	22259.235000
653.590000	22387.650000
653.930000	22541.172500
654.280000	22477.755000
654.620000	22505.400000
654.970000	22173.565000
655.310000	21852.442500
655.650000	21210.200000
656.000000	19711.150000
656.340000	18462.232500
656.690000	18301.467500
657.030000	19490.582500
657.370000	20742.100000
657.720000	21463.740000
658.060000	22215.415000
658.400000	22772.940000
658.750000	22873.900000
659.090000	23015.750000
659.430000	22980.802500
659.780000	23001.492500
660.120000	23039.990000
660.460000	23436.887500
660.810000	23495.870000
661.150000	23496.547500
661.490000	23814.805000
661.840000	24007.725000
662.180000	24310.137500
662.520000	24307.067500
662.870000	24438.960000
663.210000	24262.082500
663.550000	24363.455000
663.890000	24455.267500
664.240000	24441.077500
664.580000	24817.010000
664.920000	24891.832500
665.260000	25260.125000
665.610000	25096.152500
665.950000	25268.792500
666.290000	25246.877500
666.630000	25149.875000
666.980000	25228.930000
667.320000	25393.102500
667.660000	25386.825000
668.000000	25562.945000
668.350000	25713.342500
668.690000	26060.670000
669.030000	26265.675000
669.370000	26559.425000
669.710000	26764.772500
670.060000	26811.527500
670.400000	27270.612500
670.740000	27363.117500
671.080000	27241.057500
671.420000	27353.557500
671.770000	27087.932500
672.110000	27068.275000
672.450000	27330.280000
672.790000	27717.547500
673.130000	27987.202500
673.470000	28176.157500
673.810000	28516.462500
674.160000	28715.120000
674.500000	28859.697500
674.840000	28937.322500
675.180000	29380.772500
675.520000	29505.770000
675.860000	29878.495000
676.200000	30000.762500
676.540000	30055.305000
676.880000	29991.132500
677.230000	29866.957500
677.570000	30168.355000
677.910000	30316.015000
678.250000	30528.317500
678.590000	30809.707500
678.930000	30975.592500
679.270000	31223.467500
679.610000	31160.115000
679.950000	31229.470000
680.290000	31545.477500
680.630000	31797.852500
680.970000	31876.427500
681.310000	31986.127500
681.650000	31981.015000
681.990000	32096.720000
682.330000	32264.247500
682.670000	32554.855000
683.010000	32990.455000
683.350000	33191.837500
683.690000	33204.807500
684.030000	32909.970000
684.370000	32982.130000
684.710000	33274.917500
685.050000	33880.437500
685.390000	34385.802500
685.730000	34265.322500
686.070000	34229.957500
686.410000	32832.425000
686.750000	30076.337500
687.090000	26614.445000
687.430000	24689.217500
687.770000	25609.642500
688.110000	27626.617500
688.450000	29294.140000
688.790000	29943.350000
689.130000	29787.705000
689.470000	29793.302500
689.800000	30171.422500
690.140000	30344.417500
690.480000	31016.550000
690.820000	31635.997500
691.160000	31914.797500
691.500000	32697.052500
691.840000	33252.800000
692.180000	33709.227500
692.520000	34363.552500
692.850000	34671.427500
693.190000	34972.407500
693.530000	35148.610000
693.870000	35190.247500
694.210000	35047.640000
694.550000	35121.912500
694.880000	35545.572500
695.220000	35826.685000
695.560000	35840.070000
695.900000	36301.267500
696.240000	36567.025000
696.580000	37028.430000
696.910000	37583.367500
697.250000	37785.020000
697.590000	37691.637500
697.930000	37397.485000
698.270000	37249.952500
698.600000	37157.122500
698.940000	37041.200000
699.280000	36944.262500
699.620000	36862.345000
699.950000	36792.305000
700.290000	36765.202500
700.630000	36706.295000
700.970000	36571.057500
701.300000	36926.580000
701.640000	36854.902500
701.980000	36802.345000
702.320000	36625.050000
702.650000	36837.905000
702.990000	37035.405000
703.330000	37314.802500
703.660000	37727.542500
704.000000	37900.330000
704.340000	37968.317500
704.680000	38728.390000
705.010000	38754.810000
705.350000	38462.767500
705.690000	38426.520000
706.020000	38506.592500
706.360000	38438.867500
706.700000	38589.737500
707.030000	38392.795000
707.370000	38885.400000
707.710000	38932.640000
708.040000	38978.715000
708.380000	38962.132500
708.720000	38617.800000
709.050000	38747.362500
709.390000	39034.830000
709.720000	38984.035000
710.060000	39176.485000
710.400000	39225.700000
710.730000	39080.975000
711.070000	38940.422500
711.400000	38635.407500
711.740000	38488.020000
712.080000	38323.162500
712.410000	37904.010000
712.750000	37707.127500
713.080000	37424.712500
713.420000	37059.085000
713.750000	37360.752500
714.090000	37674.772500
714.430000	37495.640000
714.760000	36912.172500
715.100000	36489.002500
715.430000	36924.535000
715.770000	36846.775000
716.100000	36296.490000
716.440000	35489.595000
716.770000	34167.425000
717.110000	32991.072500
717.440000	32149.970000
717.780000	31463.280000
718.110000	30920.170000
718.450000	30269.860000
718.780000	29558.945000
719.120000	29103.687500
719.450000	29402.487500
719.790000	29446.032500
720.120000	29600.520000
720.460000	29381.052500
720.790000	30448.657500
721.120000	31697.500000
721.460000	33380.457500
721.790000	33979.005000
722.130000	34090.557500
722.460000	33883.440000
722.800000	33677.477500
723.130000	32883.825000
723.460000	31999.447500
723.800000	31033.970000
724.130000	30698.095000
724.470000	30986.515000
724.800000	31008.020000
725.130000	30968.217500
725.470000	31271.045000
725.800000	31506.905000
726.140000	31690.340000
726.470000	31799.220000
726.800000	31974.525000
727.140000	31921.212500
727.470000	31869.330000
727.800000	31504.247500
728.140000	31644.117500
728.470000	32255.100000
728.800000	31835.537500
729.140000	31493.657500
729.470000	31476.730000
729.800000	32243.420000
730.140000	32561.267500
730.470000	32512.872500
730.800000	32200.485000
731.140000	32143.072500
731.470000	32496.080000
731.800000	32509.525000
732.140000	32967.932500
732.470000	33224.470000
732.800000	33418.075000
733.130000	33726.160000
733.470000	33986.182500
733.800000	34360.135000
734.130000	34635.927500
734.460000	34702.765000
734.800000	34406.972500
735.130000	34321.155000
735.460000	34140.937500
735.790000	33944.602500
736.130000	34120.117500
736.460000	33871.770000
736.790000	33994.915000
737.120000	34386.075000
737.450000	34529.705000
737.790000	34559.132500
738.120000	34552.375000
738.450000	34038.530000
738.780000	33484.700000
739.110000	33323.252500
739.450000	33577.952500
739.780000	33832.855000
740.110000	34109.600000
740.440000	33920.027500
740.770000	33842.202500
741.100000	33704.647500
741.440000	33605.662500
741.770000	33665.665000
742.100000	33761.242500
742.430000	34072.332500
742.760000	34294.945000
743.090000	34994.395000
743.420000	35003.402500
743.750000	35368.145000
744.080000	34910.082500
744.420000	34419.457500
744.750000	34325.805000
745.080000	34544.797500
745.410000	34945.445000
745.740000	35162.052500
746.070000	35134.540000
746.400000	34945.585000
746.730000	34796.697500
747.060000	34957.255000
747.390000	34891.995000
747.720000	34957.057500
748.050000	34659.000000
748.380000	34612.310000
748.710000	34538.245000
749.040000	34150.567500
749.370000	33848.077500
749.710000	33753.532500
750.040000	33596.105000
750.370000	34007.000000
750.700000	33910.060000
751.030000	33510.025000
751.360000	33668.875000
751.690000	33726.632500
752.020000	34121.612500
752.340000	34120.932500
752.670000	34041.057500
753.000000	33955.387500
753.330000	34071.307500
753.660000	34289.345000
753.990000	34311.260000
754.320000	34342.937500
754.650000	34573.945000
754.980000	34467.042500
755.310000	34308.322500
755.640000	34133.080000
755.970000	34255.692500
756.300000	33925.217500
756.630000	33699.667500
756.960000	33445.922500
757.290000	33338.810000
757.610000	33442.302500
757.940000	33462.307500
758.270000	33012.575000
758.600000	32681.485000
758.930000	31759.290000
759.260000	28387.915000
759.590000	22672.317500
759.920000	15577.735000
760.240000	9877.965000
760.570000	6715.155000
760.900000	5617.302500
761.230000	6723.072500
761.560000	10163.390000
761.890000	14007.905000
762.220000	16025.762500
762.540000	15499.775000
762.870000	13647.867500
763.200000	12723.342500
763.530000	12635.760000
763.860000	13105.502500
764.180000	13955.332500
764.510000	15309.320000
764.840000	16803.037500
765.170000	18066.837500
765.500000	19576.397500
765.820000	20812.412500
766.150000	21945.217500
766.480000	23005.855000
766.810000	24358.000000
767.130000	25783.722500
767.460000	26686.200000
767.790000	27498.965000
768.120000	27890.400000
768.440000	28504.450000
768.770000	28546.430000
769.100000	28718.457500
769.420000	28605.955000
769.750000	28577.902500
770.080000	28610.742500
770.410000	29092.695000
770.730000	29256.330000
771.060000	28861.885000
771.390000	28676.755000
771.710000	28516.877500
772.040000	28518.305000
772.370000	28520.355000
772.690000	28440.352500
773.020000	28383.345000
773.350000	28330.232500
773.670000	28531.755000
774.000000	28336.237500
774.330000	28118.272500
774.650000	27487.907500
774.980000	27291.300000
775.300000	27296.902500
775.630000	27475.482500
775.960000	27348.640000
776.280000	27439.502500
776.610000	27180.715000
776.930000	27117.150000
777.260000	26650.760000
777.590000	26174.747500
777.910000	25906.602500
778.240000	25921.205000
778.560000	25784.200000
778.890000	25995.000000
779.220000	25767.062500
779.540000	25704.055000
779.870000	25290.360000
780.190000	25392.692500
780.520000	25272.340000
780.840000	25181.417500
781.170000	25195.270000
781.490000	25149.942500
781.820000	25110.482500
782.140000	24903.030000
782.470000	24906.372500
782.790000	24629.210000
783.120000	24373.152500
783.440000	24129.027500
783.770000	23837.875000
784.090000	23691.932500
784.420000	23885.942500
784.740000	23807.570000
785.070000	23691.180000
785.390000	23394.832500
785.720000	23647.482500
786.040000	23556.690000
786.370000	23419.550000
786.690000	23240.212500
787.010000	23034.732500
787.340000	22872.880000
787.660000	22875.810000
787.990000	22834.925000
788.310000	22907.825000
788.640000	22761.060000
788.960000	22852.877500
789.280000	22764.877500
789.610000	22742.757500
789.930000	22711.362500
790.260000	22545.612500
790.580000	22857.310000
790.900000	22711.972500
791.230000	22703.232500
791.550000	22532.435000
791.870000	22499.192500
792.200000	22278.825000
792.520000	22361.357500
792.850000	22392.422500
793.170000	22123.867500
793.490000	21882.542500
793.820000	21823.355000
794.140000	21906.982500
794.460000	21674.672500
794.780000	21701.165000
795.110000	21744.922500
795.430000	21843.082500
795.750000	21845.822500
796.080000	21492.755000
796.400000	21686.010000
796.720000	21550.367500
797.050000	21755.365000
797.370000	21828.552500
797.690000	22069.660000
798.010000	22042.560000
798.340000	21719.190000
798.660000	21878.252500
798.980000	21933.057500
799.300000	21588.935000
799.630000	21457.110000
799.950000	21337.645000
800.270000	21233.270000
800.590000	21240.847500
800.910000	21396.090000
801.240000	21292.732500
801.560000	21527.902500
801.880000	21487.832500
802.200000	21654.060000
802.530000	21254.367500
802.850000	21202.205000
803.170000	20818.827500
803.490000	21254.642500
803.810000	21113.257500
804.130000	21102.612500
804.460000	20957.617500
804.780000	20700.317500
805.100000	20465.970000
805.420000	20314.755000
805.740000	20453.610000
806.060000	20135.152500
806.380000	20087.640000
806.710000	19873.970000
807.030000	19593.877500
807.350000	19429.217500
807.670000	19225.097500
807.990000	19213.155000
808.310000	19052.387500
808.630000	19044.540000
808.950000	18978.525000
809.270000	18957.297500
809.590000	18668.392500
809.910000	18610.512500
810.240000	18680.677500
810.560000	18558.495000
810.880000	18774.000000
811.200000	18723.895000
811.520000	18577.060000
811.840000	18439.705000
812.160000	18557.050000
812.480000	18421.822500
812.800000	17968.055000
813.120000	17848.865000
813.440000	17443.162500
813.760000	16899.902500
814.080000	16751.502500
814.400000	16385.597500
814.720000	15960.500000
815.040000	15506.470000
815.360000	15204.940000
815.680000	15093.935000
816.000000	14678.750000
816.320000	14474.632500
816.640000	13994.800000
816.960000	14082.455000
817.280000	14595.465000
817.600000	14559.347500
817.920000	14424.052500
818.240000	14076.105000
818.550000	14257.960000
818.870000	14561.397500
819.190000	14511.225000
819.510000	14478.667500
819.830000	14185.730000
820.150000	14354.215000
820.470000	14683.250000
820.790000	15447.422500
821.110000	15315.875000
821.430000	15346.932500
821.750000	14877.260000
822.060000	14649.187500
822.380000	14004.015000
822.700000	12984.600000
823.020000	12027.520000
823.340000	11800.807500
823.660000	12738.365000
823.980000	13848.162500
824.290000	14128.052500
824.610000	14464.260000
824.930000	14479.342500
825.250000	14396.807500
825.570000	14034.932500
825.880000	14016.780000
826.200000	13878.877500
826.520000	14152.622500
826.840000	14246.287500
827.160000	14040.257500
827.470000	13570.525000
827.790000	13094.777500
828.110000	12945.142500
828.430000	13083.997500
828.750000	13107.892500
829.060000	13094.647500
829.380000	13011.630000
829.700000	13174.450000
830.020000	13330.295000
830.330000	13456.382500
830.650000	13400.887500
830.970000	13624.385000
831.280000	13630.390000
831.600000	13592.777500
831.920000	13414.327500
832.240000	13122.022500
832.550000	13128.302500
832.870000	13078.535000
833.190000	12961.385000
833.500000	12888.272500
833.820000	12903.570000
834.140000	12928.692500
834.450000	12954.565000
834.770000	13122.295000
835.090000	13230.150000
835.400000	13159.222500
835.720000	13103.582500
836.040000	12880.907500
836.350000	12875.237500
836.670000	12843.150000
836.990000	12965.550000
837.300000	12857.485000
837.620000	12873.807500
837.930000	12783.287500
838.250000	12777.342500
838.570000	12694.332500
838.880000	12587.425000
839.200000	12665.730000
839.510000	12812.777500
839.830000	12784.860000
840.150000	12789.427500
840.460000	12904.387500
840.780000	12830.252500
841.090000	12774.407500
841.410000	12719.525000
841.720000	12753.180000
842.040000	12585.105000
842.350000	12564.905000
842.670000	12543.535000
842.980000	12468.445000
843.300000	12390.005000
843.620000	12268.832500
843.930000	12158.105000
844.250000	12089.840000
844.560000	12015.437500
844.880000	11990.722500
845.190000	11990.450000
845.510000	12123.500000
845.820000	12071.620000
846.130000	12062.672500
846.450000	11889.827500
846.760000	11782.170000
847.080000	11666.592500
847.390000	11751.652500
847.710000	11789.135000
848.020000	11799.580000
848.340000	11692.125000
848.650000	11602.832500
848.970000	11624.067500
849.280000	11422.815000
849.590000	10817.712500
849.910000	10321.017500
850.220000	10146.662500
850.540000	10621.927500
850.850000	10947.147500
851.160000	10985.170000
851.480000	10926.325000
851.790000	10751.632500
852.100000	10731.630000
852.420000	10862.567500
852.730000	10771.147500
853.050000	10657.290000
853.360000	10546.565000
853.670000	10010.950000
853.990000	8994.607500
854.300000	8341.990000
854.610000	8262.115000
854.930000	9107.585000
855.240000	9858.585000
855.550000	10211.720000
855.870000	10266.745000
856.180000	10378.905000
856.490000	10486.352500
856.800000	10521.437500
857.120000	10456.045000
857.430000	10378.557500
857.740000	10347.502500
858.060000	10299.165000
858.370000	10210.965000
858.680000	10156.085000
858.990000	10144.405000
859.310000	10071.157500
859.620000	10023.097500
859.930000	9987.802500
860.240000	10035.665000
860.560000	10062.625000
860.870000	10046.652500
861.180000	9918.930000
861.490000	9799.942500
861.800000	9834.822500
862.120000	9839.947500
862.430000	9709.552500
862.740000	9707.642500
863.050000	9736.932500
863.360000	9678.635000
863.680000	9649.620000
863.990000	9620.950000
864.300000	9609.072500
864.610000	9497.042500
864.920000	9293.682500
865.230000	9189.712500
865.550000	8945.047500
865.860000	8373.327500
866.170000	7764.937500
866.480000	7374.870000
866.790000	7731.355000
867.100000	8459.135000
867.410000	8753.697500
867.720000	8918.560000
868.040000	8919.790000
868.350000	8909.550000
868.660000	8807.422500
868.970000	8713.217500
869.280000	8646.657500
869.590000	8725.030000
869.900000	8669.462500
870.210000	8634.102500
870.520000	8601.395000
870.830000	8494.635000
871.140000	8329.562500
871.450000	8283.352500
871.760000	8214.195000
872.070000	8223.957500
872.380000	8173.715000
872.690000	8105.245000
873.000000	8001.752500
873.310000	7929.325000
873.620000	7854.647500
873.930000	7761.937500
874.240000	7771.497500
874.550000	7683.295000
874.860000	7662.407500
875.170000	7602.062500
875.480000	7539.187500
875.790000	7574.682500
876.100000	7476.660000
876.410000	7462.730000
876.720000	7367.972500
877.030000	7227.555000
877.340000	7167.340000
877.650000	7164.612500
877.960000	7147.415000
878.270000	7134.857500
878.580000	7070.885000
878.890000	6990.945000
879.200000	6968.072500
879.510000	6908.145000
879.810000	6955.517500
880.120000	6962.817500
880.430000	6763.757500
880.740000	6676.035000
881.050000	6709.895000
881.360000	6803.355000
881.670000	6926.027500
881.980000	6845.680000
882.280000	6758.167500
882.590000	6782.397500
882.900000	6770.650000
883.210000	6821.920000
883.520000	6757.890000
883.830000	6733.520000
884.130000	6822.745000
884.440000	6815.432500
884.750000	6888.272500
885.060000	6916.535000
885.370000	6930.257500
885.680000	6929.235000
885.980000	6773.725000
886.290000	6718.292500
886.600000	6646.070000
886.910000	6662.992500
887.210000	6689.757500
887.520000	6771.947500
887.830000	6787.107500
888.140000	6727.102500
888.440000	6773.517500
888.750000	6809.087500
889.060000	6843.425000
889.370000	6782.465000
889.670000	6700.610000
889.980000	6717.407500
890.290000	6731.327500
890.600000	6726.075000
890.900000	6782.800000
891.210000	6729.425000
891.520000	6743.352500
891.820000	6700.682500
892.130000	6671.600000
892.440000	6487.832500
892.740000	6469.265000
893.050000	6375.120000
893.360000	6404.402500
893.660000	6451.375000
893.970000	6463.115000
894.280000	6311.360000
894.580000	6270.057500
894.890000	6097.892500
895.200000	6013.590000
895.500000	5957.812500
895.810000	5890.850000
896.110000	5766.460000
896.420000	5595.665000
896.730000	5469.920000
897.030000	5535.392500
897.340000	5456.677500
897.640000	5495.655000
897.950000	5659.357500
898.260000	5489.582500
898.560000	5096.850000
898.870000	4691.622500
899.170000	4750.125000
899.480000	5176.722500
899.780000	5394.007500
900.090000	5193.512500
900.390000	5014.865000
900.700000	5051.180000
901.000000	5020.457500
901.310000	4950.967500
901.620000	5003.800000
901.920000	4993.225000
902.230000	4959.567500
902.530000	5020.185000
902.840000	5138.220000
903.140000	5400.832500
903.440000	5601.605000
903.750000	5653.217500
904.050000	5586.385000
904.360000	5579.280000
904.660000	5521.190000
904.970000	5513.197500
905.270000	5447.052500
905.580000	5398.035000
905.880000	5254.335000
906.190000	5106.952500
906.490000	4892.867500
906.790000	4765.687500
907.100000	4680.160000
907.400000	4549.770000
907.710000	4534.887500
908.010000	4546.282500
908.310000	4354.942500
908.620000	4432.075000
908.920000	4275.337500
909.230000	4342.040000
909.530000	4261.070000
909.830000	4305.107500
910.140000	4251.520000
910.440000	4237.795000
910.740000	4297.527500
911.050000	4397.325000
911.350000	4376.172500
911.650000	4273.090000
911.960000	4262.715000
912.260000	4313.362500
912.560000	4188.850000
912.870000	3896.127500
913.170000	3638.625000
913.470000	3667.437500
913.780000	3719.792500
914.080000	3915.582500
914.380000	4042.687500
914.690000	3879.532500
914.990000	3561.212500
915.290000	3379.425000
915.590000	3353.000000
915.900000	3522.500000
916.200000	3693.450000
916.500000	3654.937500
916.800000	3504.415000
917.110000	3239.545000
917.410000	3173.120000
917.710000	3207.530000
918.010000	3329.245000
918.310000	3435.537500
918.620000	3450.012500
918.920000	3420.515000
919.220000	3444.545000
919.520000	3429.937500
919.820000	3490.562500
920.130000	3521.687500
920.430000	3496.567500
920.730000	3431.162500
921.030000	3274.020000
921.330000	3195.515000
921.630000	3206.982500
921.940000	3244.457500
922.240000	3204.115000
922.540000	3145.202500
922.840000	3092.505000
923.140000	3007.720000
923.440000	3009.285000
923.740000	2983.690000
924.050000	2948.252500
924.350000	2940.205000
924.650000	2911.527500
924.950000	2899.990000
925.250000	2888.595000
925.550000	2839.512500
925.850000	2811.727500
926.150000	2809.270000
926.450000	2855.407500
926.750000	2864.290000
927.050000	2724.005000
927.350000	2560.645000
927.650000	2421.112500
927.950000	2313.997500
928.250000	2178.635000
928.560000	2152.485000
928.860000	2072.410000
929.160000	1979.972500
929.460000	1832.177500
929.760000	1744.250000
930.060000	1691.350000
930.360000	1570.382500
930.660000	1515.767500
930.960000	1393.235000
931.260000	1237.312500
931.550000	1149.455000
931.850000	997.630000
932.150000	974.155000
932.450000	943.700000
932.750000	908.482500
933.050000	864.377500
933.350000	755.012500
933.650000	626.610000
933.950000	540.875000
934.250000	577.805000
934.550000	639.040000
934.850000	684.160000
935.150000	680.740000
935.450000	610.087500
935.750000	593.230000
936.040000	596.370000
936.340000	584.017500
936.640000	494.445000
936.940000	479.295000
937.240000	433.762500
937.540000	427.962500
937.840000	427.615000
938.140000	447.550000
938.430000	528.105000
938.730000	619.377500
939.030000	692.965000
939.330000	689.620000
939.630000	667.837500
939.920000	612.752500
940.220000	566.122500
940.520000	532.947500
940.820000	500.315000
941.120000	457.650000
941.420000	464.132500
941.710000	486.117500
942.010000	445.017500
942.310000	398.677500
942.610000	366.932500
942.900000	369.115000
943.200000	362.765000
943.500000	342.012500
943.800000	272.245000
944.090000	249.995000
944.390000	297.295000
944.690000	346.997500
944.990000	351.835000
945.280000	318.255000
945.580000	288.010000
945.880000	275.790000
946.170000	304.395000
946.470000	307.532500
946.770000	339.145000
947.060000	355.182500
947.360000	344.262500
947.660000	303.505000
947.960000	333.337500
948.250000	342.077500
948.550000	395.117500
948.840000	384.750000
949.140000	355.182500
949.440000	272.855000
949.730000	258.925000
950.030000	318.667500
950.330000	379.415000
950.620000	442.775000
950.920000	456.565000
951.210000	431.647500
951.510000	377.980000
951.810000	334.020000
952.100000	307.535000
952.400000	347.537500
952.690000	393.892500
952.990000	414.777500
953.290000	454.307500
953.580000	448.300000
953.880000	415.460000
954.170000	411.092500
954.470000	402.427500
954.760000	388.767500
955.060000	389.452500
955.350000	388.092500
955.650000	389.315000
955.940000	405.160000
956.240000	406.520000
956.530000	407.000000
956.830000	428.437500
957.120000	492.190000
957.420000	518.747500
957.710000	511.927500
958.010000	489.195000
958.300000	462.565000
958.600000	429.737500
958.890000	408.295000
959.190000	370.412500
959.480000	413.832500
959.780000	445.567500
960.070000	458.340000
960.370000	460.112500
960.660000	483.255000
960.950000	502.097500
961.250000	503.322500
961.540000	492.060000
961.840000	470.212500
962.130000	466.662500
962.420000	494.447500
962.720000	510.220000
963.010000	520.390000
963.310000	512.197500
963.600000	500.800000
963.890000	460.455000
964.190000	476.290000
964.480000	491.032500
964.770000	508.372500
965.070000	535.202500
965.360000	518.132500
965.650000	494.585000
965.950000	476.970000
966.240000	469.397500
966.530000	466.047500
966.830000	498.812500
967.120000	522.572500
967.410000	546.402500
967.710000	546.197500
968.000000	558.412500
968.290000	541.682500
968.580000	564.965000
968.880000	578.212500
969.170000	551.112500
969.460000	539.845000
969.760000	557.120000
970.050000	545.507500
970.340000	537.252500
970.630000	551.450000
970.920000	553.157500
971.220000	542.715000
971.510000	536.842500
971.800000	532.137500
972.090000	510.900000
972.390000	486.185000
972.680000	469.252500
972.970000	447.072500
973.260000	439.625000
973.550000	427.680000
973.840000	398.802500
974.140000	398.257500
974.430000	410.682500
974.720000	412.932500
975.010000	392.052500
975.300000	368.975000
975.590000	374.502500
975.890000	364.535000
976.180000	337.502500
976.470000	358.535000
976.760000	370.477500
977.050000	387.610000
977.340000	395.530000
977.630000	378.465000
977.920000	382.905000
978.210000	355.732500
978.510000	352.382500
978.800000	357.435000
979.090000	309.650000
979.380000	329.582500
979.670000	309.655000
979.960000	319.212500
980.250000	321.942500
980.540000	320.232500
980.830000	316.682500
981.120000	321.805000
981.410000	326.995000
981.700000	316.615000
981.990000	304.397500
982.280000	315.317500
982.570000	284.807500
982.860000	297.975000
983.150000	276.267500
983.440000	285.140000
983.730000	311.295000
984.020000	291.292500
984.310000	266.852500
984.600000	269.302500
984.890000	254.832500
985.180000	257.907500
985.470000	259.205000
985.760000	265.220000
986.050000	241.860000
986.340000	234.352500
986.630000	236.335000
986.920000	218.040000
987.210000	214.837500
987.490000	207.457500
987.780000	196.055000
988.070000	201.107500
988.360000	187.390000
988.650000	203.975000
988.940000	188.140000
989.230000	179.607500
989.520000	179.945000
989.800000	164.115000
990.090000	168.747500
990.380000	153.870000
990.670000	168.202500
990.960000	149.637500
991.250000	151.067500
991.540000	140.147500
991.820000	174.285000
992.110000	130.320000
992.400000	135.232500
992.690000	144.857500
992.980000	123.087500
993.260000	136.935000
993.550000	115.845000
993.840000	124.177500
994.130000	103.967500
994.420000	81.710000
994.700000	92.297500
994.990000	108.680000
995.280000	97.957500
995.570000	73.862500
995.850000	67.312500
996.140000	79.867500
996.430000	61.305000
996.720000	67.995000
997.000000	66.562500
997.290000	57.005000
997.580000	65.062500
997.860000	40.760000
998.150000	45.255000
998.440000	40.550000
998.730000	45.120000
999.010000	49.082500
999.300000	46.015000
999.590000	49.560000
999.870000	33.930000
1000.160000	19.250000
1000.450000	20.475000
1000.730000	29.625000
1001.020000	16.175000
1001.300000	28.810000
1001.590000	29.012500
1001.880000	5.525000
1002.160000	12.352500
1002.450000	9.560000
1002.740000	20.550000
1003.020000	14.672500
1003.310000	22.940000
1003.590000	18.437500
1003.880000	18.842500
1004.170000	12.357500
1004.450000	9.417500
1004.740000	10.580000
1005.020000	14.470000
1005.310000	12.632500
1005.590000	18.362500
1005.880000	12.215000
1006.160000	1.705000
1006.450000	4.985000
1006.730000	0.000000
1007.020000	0.000000
1007.310000	1.025000
1007.590000	0.485000
1007.880000	0.135000
1008.160000	0.000000
1008.450000	4.707500
1008.730000	0.000000
1009.020000	0.472500
1009.300000	0.000000
1009.580000	0.000000
1009.870000	0.000000
1010.150000	0.000000
1010.440000	0.000000
1010.720000	0.000000
1011.010000	0.000000
1011.290000	0.000000
1011.580000	0.000000
1011.860000	0.000000
1012.140000	0.000000
1012.430000	0.000000
1012.710000	5.120000
1013.000000	0.000000
1013.280000	0.000000
1013.560000	0.000000
1013.850000	0.000000
1014.130000	0.272500
1014.420000	0.000000
1014.700000	0.000000
1014.980000	0.000000
1015.270000	0.000000
1015.550000	0.000000
1015.830000	0.000000
1016.120000	0.000000
1016.400000	0.000000
1016.680000	0.000000
1016.970000	0.000000
1017.250000	0.000000
1017.530000	0.000000
1017.820000	0.000000
1018.100000	0.000000
1018.380000	0.000000
1018.670000	0.000000
1018.950000	0.000000
1019.230000	0.000000
1019.510000	0.000000
1019.800000	0.000000
1020.080000	0.000000
1020.360000	0.000000
1020.640000	0.000000
1020.930000	0.000000
1021.210000	0.000000
1021.490000	0.000000
1021.770000	0.000000
1022.060000	0.000000
1022.340000	0.000000
1022.620000	0.000000
1022.900000	0.000000
1023.180000	0.000000
1023.470000	0.000000
1023.750000	0.000000
1024.030000	0.000000
1024.310000	0.000000
1024.590000	0.000000
1024.870000	0.000000
1025.160000	0.000000
1025.440000	0.000000
