Wavelength	Real Intensity
339.870000	0.000000
340.250000	0.000000
340.630000	0.000000
341.020000	0.000000
341.400000	0.000000
341.780000	0.000000
342.160000	0.000000
342.550000	0.000000
342.930000	0.000000
343.310000	0.000000
343.690000	0.000000
344.080000	0.000000
344.460000	0.000000
344.840000	0.000000
345.220000	0.000000
345.600000	0.000000
345.990000	0.000000
346.370000	0.000000
346.750000	0.000000
347.130000	0.000000
347.510000	0.000000
347.900000	0.000000
348.280000	0.000000
348.660000	0.000000
349.040000	0.000000
349.420000	0.000000
349.800000	0.000000
350.190000	0.000000
350.570000	0.000000
350.950000	0.000000
351.330000	0.000000
351.710000	0.000000
352.090000	0.000000
352.470000	0.000000
352.860000	0.000000
353.240000	0.000000
353.620000	0.000000
354.000000	0.000000
354.380000	0.000000
354.760000	0.000000
355.140000	0.000000
355.520000	0.000000
355.900000	0.000000
356.280000	0.000000
356.670000	0.000000
357.050000	0.000000
357.430000	0.000000
357.810000	0.000000
358.190000	0.000000
358.570000	0.000000
358.950000	0.000000
359.330000	0.000000
359.710000	0.000000
360.090000	0.000000
360.470000	0.000000
360.850000	0.000000
361.230000	0.000000
361.610000	0.000000
361.990000	0.000000
362.370000	0.000000
362.750000	0.000000
363.130000	0.000000
363.510000	0.000000
363.890000	0.000000
364.270000	0.000000
364.650000	0.000000
365.030000	0.000000
365.410000	0.000000
365.790000	0.000000
366.170000	0.000000
366.550000	0.000000
366.930000	0.000000
367.310000	0.000000
367.690000	0.000000
368.070000	0.000000
368.450000	0.000000
368.830000	0.000000
369.210000	0.000000
369.590000	0.000000
369.970000	0.000000
370.350000	0.000000
370.730000	0.000000
371.110000	0.000000
371.490000	0.000000
371.870000	0.000000
372.250000	0.000000
372.620000	0.000000
373.000000	0.000000
373.380000	0.000000
373.760000	0.000000
374.140000	0.000000
374.520000	0.000000
374.900000	0.000000
375.280000	0.000000
375.660000	0.000000
376.030000	0.000000
376.410000	0.000000
376.790000	0.000000
377.170000	0.000000
377.550000	0.000000
377.930000	0.000000
378.310000	0.000000
378.680000	0.000000
379.060000	0.000000
379.440000	0.000000
379.820000	0.000000
380.200000	0.000000
380.580000	0.000000
380.950000	0.000000
381.330000	0.000000
381.710000	0.000000
382.090000	0.000000
382.470000	0.000000
382.850000	0.000000
383.220000	0.000000
383.600000	0.000000
383.980000	0.000000
384.360000	0.137500
384.730000	0.342500
385.110000	4.370000
385.490000	0.955000
385.870000	4.777500
386.250000	6.825000
386.620000	12.422500
387.000000	15.425000
387.380000	22.937500
387.760000	23.960000
388.130000	39.460000
388.510000	43.482500
388.890000	58.025000
389.260000	112.295000
389.640000	166.567500
390.020000	192.712500
390.400000	211.555000
390.770000	249.577500
391.150000	304.327500
391.530000	359.827500
391.900000	337.370000
392.280000	310.407500
392.660000	258.112500
393.040000	171.145000
393.410000	84.852500
393.790000	142.400000
394.170000	234.422500
394.540000	378.190000
394.920000	487.897500
395.300000	573.570000
395.670000	630.567500
396.050000	588.450000
396.420000	440.657500
396.800000	288.012500
397.180000	265.760000
397.550000	455.260000
397.930000	719.930000
398.310000	911.822500
398.680000	1018.797500
399.060000	1088.700000
399.440000	1180.517500
399.810000	1250.692500
400.190000	1280.457500
400.560000	1306.602500
400.940000	1371.662500
401.320000	1429.755000
401.690000	1545.872500
402.070000	1595.435000
402.440000	1649.230000
402.820000	1673.735000
403.190000	1650.662500
403.570000	1660.627500
403.950000	1732.310000
404.320000	1782.895000
404.700000	1711.692500
405.070000	1767.325000
405.450000	1858.260000
405.820000	1913.962500
406.200000	1865.017500
406.570000	1897.715000
406.950000	1904.407500
407.320000	1997.177500
407.700000	2061.552500
408.070000	2111.322500
408.450000	2177.880000
408.820000	2379.877500
409.200000	2439.402500
409.570000	2409.912500
409.950000	2212.282500
410.320000	2156.647500
410.700000	2189.687500
411.070000	2462.615000
411.450000	2682.770000
411.820000	2734.175000
412.200000	2738.680000
412.570000	2741.067500
412.950000	2696.562500
413.320000	2655.805000
413.700000	2792.405000
414.070000	2836.985000
414.450000	2896.170000
414.820000	2853.570000
415.190000	2867.087500
415.570000	2870.227500
415.940000	2989.897500
416.320000	3054.480000
416.690000	3166.362500
417.070000	3126.020000
417.440000	2997.407500
417.810000	2961.365000
418.190000	3043.897500
418.560000	3072.705000
418.940000	3132.980000
419.310000	3254.562500
419.680000	3265.760000
420.060000	3206.027500
420.430000	3232.580000
420.800000	3419.085000
421.180000	3663.132500
421.550000	3674.127500
421.930000	3699.315000
422.300000	3620.125000
422.670000	3414.032500
423.050000	3453.220000
423.420000	3573.365000
423.790000	3765.600000
424.170000	3835.435000
424.540000	3996.270000
424.910000	3962.545000
425.290000	3977.157500
425.660000	4000.707500
426.030000	4019.482500
426.400000	4269.745000
426.780000	4289.745000
427.150000	4150.002500
427.520000	4097.642500
427.900000	4204.890000
428.270000	4548.470000
428.640000	4452.080000
429.020000	4386.882500
429.390000	4372.207500
429.760000	4097.850000
430.130000	3818.030000
430.510000	3512.060000
430.880000	3417.515000
431.250000	3832.980000
431.620000	4763.165000
432.000000	5352.842500
432.370000	5497.362500
432.740000	5271.677500
433.110000	5460.570000
433.480000	5808.992500
433.860000	5404.452500
434.230000	4978.610000
434.600000	5215.562500
434.970000	5560.305000
435.350000	5762.780000
435.720000	5828.587500
436.090000	6150.530000
436.460000	6328.222500
436.830000	6373.620000
437.210000	6163.157500
437.580000	5925.115000
437.950000	5888.255000
438.320000	5544.125000
438.690000	5379.810000
439.060000	5575.735000
439.440000	5905.317500
439.810000	6104.790000
440.180000	6109.980000
440.550000	5976.860000
440.920000	6065.060000
441.290000	6335.937500
441.660000	6527.695000
442.030000	6690.100000
442.410000	6751.880000
442.780000	6857.212500
443.150000	6758.227500
443.520000	6760.345000
443.890000	6750.585000
444.260000	6898.650000
444.630000	7064.672500
445.000000	7247.762500
445.370000	7039.755000
445.740000	6722.117500
446.120000	6597.190000
446.490000	6873.870000
446.860000	7158.537500
447.230000	7538.915000
447.600000	7814.297500
447.970000	7896.352500
448.340000	7804.602500
448.710000	7815.457500
449.080000	7948.302500
449.450000	8140.197500
449.820000	8300.827500
450.190000	8635.535000
450.560000	9169.032500
450.930000	9199.407500
451.300000	9212.922500
451.670000	9212.650000
452.040000	9331.980000
452.410000	9312.730000
452.780000	8975.290000
453.150000	8846.200000
453.520000	8967.917500
453.890000	9410.690000
454.260000	9944.392500
454.630000	10184.685000
455.000000	10025.282500
455.370000	10077.370000
455.740000	10350.022500
456.110000	11036.365000
456.480000	11039.235000
456.850000	11326.565000
457.220000	11382.337500
457.590000	11718.612500
457.960000	11671.170000
458.330000	11467.535000
458.700000	11548.015000
459.070000	11820.945000
459.430000	11878.970000
459.800000	12014.000000
460.170000	12067.180000
460.540000	12569.612500
460.910000	12720.617500
461.280000	13029.520000
461.650000	13172.195000
462.020000	13323.947500
462.390000	13397.742500
462.760000	13631.555000
463.120000	13710.400000
463.490000	13477.820000
463.860000	13464.302500
464.230000	13322.172500
464.600000	12941.182500
464.970000	12979.137500
465.340000	13310.907500
465.700000	13797.780000
466.070000	13819.215000
466.440000	13598.582500
466.810000	13155.945000
467.180000	13079.830000
467.550000	13627.935000
467.910000	13708.080000
468.280000	13721.457500
468.650000	13965.712500
469.020000	13974.520000
469.390000	14174.197500
469.750000	14134.600000
470.120000	13904.752500
470.490000	13499.187500
470.860000	13789.517500
471.230000	13951.647500
471.590000	14413.807500
471.960000	14939.247500
472.330000	15387.825000
472.700000	15189.780000
473.060000	15060.830000
473.430000	14656.015000
473.800000	15123.702500
474.170000	15367.207500
474.530000	15849.847500
474.900000	15951.902500
475.270000	16042.492500
475.640000	15845.680000
476.000000	15718.022500
476.370000	15608.115000
476.740000	15898.517500
477.110000	16121.675000
477.470000	16742.420000
477.840000	17156.995000
478.210000	17412.515000
478.570000	17016.435000
478.940000	16928.032500
479.310000	17239.870000
479.670000	17834.530000
480.040000	18220.162500
480.410000	17784.835000
480.770000	18117.560000
481.140000	18059.602500
481.510000	18595.145000
481.870000	18855.785000
482.240000	19088.367500
482.610000	18944.937500
482.970000	18867.322500
483.340000	19217.525000
483.710000	19136.835000
484.070000	19124.817500
484.440000	19292.070000
484.800000	19601.107500
485.170000	19403.140000
485.540000	18804.315000
485.900000	17084.425000
486.270000	15971.492500
486.630000	16488.537500
487.000000	17842.930000
487.370000	18861.792500
487.730000	19484.102500
488.100000	20461.527500
488.460000	20453.542500
488.830000	20108.050000
489.190000	20219.255000
489.560000	21017.277500
489.930000	22245.037500
490.290000	22376.652500
490.660000	22076.285000
491.020000	21834.010000
491.390000	21959.142500
491.750000	21270.885000
492.120000	20767.907500
492.480000	20699.570000
492.850000	22209.540000
493.210000	22718.797500
493.580000	22543.222500
493.940000	22052.390000
494.310000	22719.415000
494.670000	23395.380000
495.040000	23476.342500
495.400000	23205.670000
495.770000	22429.285000
496.130000	22796.962500
496.500000	23189.492500
496.860000	23291.890000
497.230000	23456.342500
497.590000	23237.140000
497.960000	22898.472500
498.320000	21772.230000
498.690000	21753.522500
499.050000	22242.920000
499.410000	23026.745000
499.780000	22860.795000
500.140000	22323.885000
500.510000	21553.300000
500.870000	21672.765000
501.240000	21505.582500
501.600000	21310.342500
501.960000	21253.000000
502.330000	21643.822500
502.690000	21859.610000
503.060000	22311.597500
503.420000	22425.052500
503.780000	21753.660000
504.150000	21292.597500
504.510000	21561.900000
504.880000	22116.767500
505.240000	22258.620000
505.600000	22641.867500
505.970000	23376.675000
506.330000	23038.147500
506.690000	22619.405000
507.060000	22257.052500
507.420000	22195.747500
507.780000	21804.860000
508.150000	21588.937500
508.510000	21841.585000
508.870000	22440.620000
509.240000	22997.597500
509.600000	22474.137500
509.960000	22193.155000
510.330000	22299.855000
510.690000	22442.530000
511.050000	22393.787500
511.410000	23033.027500
511.780000	23432.995000
512.140000	22973.702500
512.500000	22627.255000
512.870000	22293.505000
513.230000	22278.145000
513.590000	22364.022500
513.950000	21844.522500
514.320000	21842.472500
514.680000	22028.020000
515.040000	22453.997500
515.400000	22798.877500
515.770000	23094.805000
516.130000	22930.765000
516.490000	21443.122500
516.850000	19517.757500
517.220000	18824.997500
517.580000	20593.212500
517.940000	21531.930000
518.300000	21037.827500
518.660000	20797.942500
519.030000	21681.367500
519.390000	22783.515000
519.750000	23299.467500
520.110000	23815.147500
520.470000	23852.830000
520.830000	23753.500000
521.200000	24066.567500
521.560000	24553.440000
521.920000	25013.685000
522.280000	24656.042500
522.640000	24299.355000
523.000000	23882.935000
523.370000	24419.500000
523.730000	25516.257500
524.090000	26193.452500
524.450000	26555.532500
524.810000	26501.875000
525.170000	26037.330000
525.530000	26294.552500
525.890000	26561.747500
526.260000	25331.597500
526.620000	23998.030000
526.980000	23529.112500
527.340000	24328.640000
527.700000	25943.260000
528.060000	26676.910000
528.420000	27256.005000
528.780000	27946.855000
529.140000	28899.842500
529.500000	28415.635000
529.860000	27820.837500
530.220000	27916.882500
530.590000	28855.062500
530.950000	29665.170000
531.310000	29638.817500
531.670000	29425.900000
532.030000	29096.995000
532.390000	28092.125000
532.750000	27188.697500
533.110000	27569.002500
533.470000	28505.062500
533.830000	28997.327500
534.190000	29098.975000
534.550000	29057.400000
534.910000	29500.650000
535.270000	30006.087500
535.630000	30743.360000
535.990000	30946.922500
536.350000	30171.492500
536.710000	29143.207500
537.070000	28428.265000
537.430000	29279.947500
537.790000	29826.070000
538.150000	30165.692500
538.510000	30243.515000
538.870000	30118.657500
539.220000	29694.525000
539.580000	29157.407500
539.940000	29051.530000
540.300000	28609.375000
540.660000	28365.460000
541.020000	28475.502500
541.380000	29231.475000
541.740000	29856.447500
542.100000	29938.505000
542.460000	29862.865000
542.820000	29572.735000
543.180000	29321.655000
543.530000	29451.497500
543.890000	30142.415000
544.250000	30470.635000
544.610000	30021.447500
544.970000	30176.477500
545.330000	30021.240000
545.690000	30352.877500
546.050000	29703.740000
546.400000	29905.530000
546.760000	29902.665000
547.120000	29957.002500
547.480000	29431.835000
547.840000	29004.015000
548.200000	29209.835000
548.550000	29655.200000
548.910000	30025.612500
549.270000	29912.015000
549.630000	29981.035000
549.990000	29689.062500
550.340000	29432.110000
550.700000	29292.372500
551.060000	29279.947500
551.420000	29321.792500
551.780000	29675.952500
552.130000	29800.267500
552.490000	29203.832500
552.850000	28988.247500
553.210000	28887.490000
553.570000	28937.252500
553.920000	29311.895000
554.280000	29416.750000
554.640000	29562.360000
555.000000	29788.727500
555.350000	29543.522500
555.710000	29209.357500
556.070000	29001.420000
556.420000	28557.082500
556.780000	28036.077500
557.140000	28072.122500
557.500000	28073.145000
557.850000	28384.847500
558.210000	28296.167500
558.570000	27364.002500
558.920000	27014.005000
559.280000	27003.695000
559.640000	27363.387500
559.990000	27358.952500
560.350000	27602.250000
560.710000	28505.470000
561.060000	28712.042500
561.420000	27750.382500
561.780000	27493.570000
562.130000	27390.285000
562.490000	27730.657500
562.850000	27916.407500
563.200000	28052.872500
563.560000	27732.702500
563.920000	27402.027500
564.270000	27633.925000
564.630000	27668.195000
564.980000	27604.367500
565.340000	27257.302500
565.700000	26690.837500
566.050000	26280.492500
566.410000	26741.352500
566.760000	27226.652500
567.120000	27443.670000
567.480000	27501.420000
567.830000	27277.717500
568.190000	26635.332500
568.540000	26338.995000
568.900000	26232.705000
569.250000	26634.722500
569.610000	26590.005000
569.970000	26384.392500
570.320000	26127.235000
570.680000	25343.885000
571.030000	25082.497500
571.390000	25365.320000
571.740000	26039.992500
572.100000	26400.637500
572.450000	26659.230000
572.810000	26482.490000
573.160000	26499.417500
573.520000	26366.027500
573.870000	26285.882500
574.230000	26196.522500
574.580000	25853.010000
574.940000	25393.312500
575.290000	24983.782500
575.650000	24911.697500
576.000000	24853.535000
576.360000	25039.967500
576.710000	25071.982500
577.070000	25092.190000
577.420000	25001.260000
577.780000	24523.265000
578.130000	24166.032500
578.480000	23874.810000
578.840000	24202.280000
579.190000	24246.040000
579.550000	24287.477500
579.900000	24240.237500
580.260000	24366.595000
580.610000	24174.155000
580.960000	24075.102500
581.320000	23989.497500
581.670000	24055.917500
582.030000	24185.690000
582.380000	24201.530000
582.730000	24277.510000
583.090000	23885.187500
583.440000	23868.122500
583.790000	23660.117500
584.150000	23864.570000
584.500000	23773.777500
584.860000	23516.345000
585.210000	23011.317500
585.560000	22439.525000
585.920000	22322.245000
586.270000	22383.957500
586.620000	22831.235000
586.980000	22897.795000
587.330000	22925.642500
587.680000	22550.525000
588.040000	22408.462500
588.390000	21746.017500
588.740000	20247.450000
589.090000	19540.830000
589.450000	19085.427500
589.800000	20165.802500
590.150000	20948.810000
590.510000	21635.082500
590.860000	21728.672500
591.210000	21497.322500
591.560000	21530.430000
591.920000	21349.322500
592.270000	21574.325000
592.620000	21706.422500
592.970000	21482.167500
593.330000	21401.067500
593.680000	21664.030000
594.030000	21481.007500
594.380000	21382.157500
594.740000	21060.765000
595.090000	21136.470000
595.440000	21250.337500
595.790000	21650.987500
596.140000	21730.652500
596.500000	21703.350000
596.850000	21740.350000
597.200000	21723.420000
597.550000	21551.460000
597.900000	21498.687500
598.260000	21347.005000
598.610000	21399.430000
598.960000	21478.755000
599.310000	21811.140000
599.660000	21793.867500
600.010000	21762.602500
600.370000	21692.630000
600.720000	21465.512500
601.070000	21405.780000
601.420000	21511.320000
601.770000	21409.807500
602.120000	21341.815000
602.470000	21682.665000
602.830000	22048.570000
603.180000	22156.152500
603.530000	22313.505000
603.880000	22423.617500
604.230000	22340.267500
604.580000	22616.675000
604.930000	22580.220000
605.280000	22461.235000
605.630000	22539.400000
605.980000	22564.722500
606.330000	22459.120000
606.690000	22667.395000
607.040000	22770.412500
607.390000	22788.362500
607.740000	22638.792500
608.090000	22493.660000
608.440000	22607.935000
608.790000	22591.277500
609.140000	22889.052500
609.490000	22767.472500
609.840000	22497.345000
610.190000	22463.077500
610.540000	22506.152500
610.890000	22910.355000
611.240000	23079.860000
611.590000	22994.252500
611.940000	22781.127500
612.290000	22764.470000
612.640000	22931.242500
612.990000	23097.742500
613.340000	22686.032500
613.690000	22523.012500
614.040000	22701.185000
614.390000	23103.065000
614.740000	23302.195000
615.090000	23275.575000
615.440000	23211.950000
615.790000	22744.400000
616.140000	22374.670000
616.480000	22292.890000
616.830000	22720.437500
617.180000	22985.992500
617.530000	23392.172500
617.880000	23711.110000
618.230000	23920.207500
618.580000	23746.947500
618.930000	23611.302500
619.280000	23666.327500
619.630000	23904.367500
619.980000	24091.895000
620.320000	24100.907500
620.670000	24329.392500
621.020000	24021.650000
621.370000	23731.385000
621.720000	23691.245000
622.070000	23823.475000
622.420000	23772.687500
622.760000	23501.737500
623.110000	23453.475000
623.460000	23439.620000
623.810000	23499.145000
624.160000	23226.902500
624.510000	23214.477500
624.850000	23006.062500
625.200000	22858.745000
625.550000	22701.120000
625.900000	22889.530000
626.250000	23223.215000
626.590000	23473.752500
626.940000	23598.200000
627.290000	23005.242500
627.640000	22121.545000
627.990000	22114.170000
628.330000	22456.727500
628.680000	22736.482500
629.030000	22734.432500
629.380000	22505.742500
629.720000	22215.820000
630.070000	21996.617500
630.420000	22238.755000
630.770000	22595.650000
631.110000	22292.345000
631.460000	21707.582500
631.810000	21568.317500
632.160000	22008.085000
632.500000	22357.877500
632.850000	22636.880000
633.200000	22311.665000
633.540000	21908.965000
633.890000	21978.595000
634.240000	21937.430000
634.580000	22248.450000
634.930000	22163.872500
635.280000	22213.430000
635.630000	21865.272500
635.970000	21701.370000
636.320000	21711.677500
636.670000	21832.167500
637.010000	21970.610000
637.360000	22112.397500
637.700000	22073.485000
638.050000	21960.847500
638.400000	21848.347500
638.740000	22015.325000
639.090000	21759.260000
639.440000	21408.032500
639.780000	21056.602500
640.130000	21223.235000
640.470000	21177.020000
640.820000	21016.937500
641.170000	20801.080000
641.510000	20747.902500
641.860000	20840.197500
642.200000	21021.170000
642.550000	21214.020000
642.900000	21036.530000
643.240000	20880.340000
643.590000	20745.240000
643.930000	20957.822500
644.280000	20904.232500
644.620000	20743.057500
644.970000	20692.675000
645.310000	20552.662500
645.660000	20674.927500
646.000000	20271.682500
646.350000	20401.590000
646.700000	20318.990000
647.040000	20351.280000
647.390000	20289.362500
647.730000	20219.867500
648.080000	20287.587500
648.420000	20460.845000
648.770000	20153.855000
649.110000	19674.837500
649.460000	19082.427500
649.800000	19473.317500
650.140000	20266.630000
650.490000	20592.532500
650.830000	20669.195000
651.180000	20465.555000
651.520000	20122.795000
651.870000	20322.880000
652.210000	20415.722500
652.560000	20544.745000
652.900000	20508.085000
653.250000	20536.552500
653.590000	20582.152500
653.930000	20721.552500
654.280000	20341.997500
654.620000	20257.482500
654.970000	19913.422500
655.310000	19606.775000
655.650000	18615.967500
656.000000	16430.100000
656.340000	16266.605000
656.690000	17468.627500
657.030000	19284.627500
657.370000	20029.200000
657.720000	20381.862500
658.060000	20724.077500
658.400000	20964.170000
658.750000	20876.377500
659.090000	20805.722500
659.430000	20859.450000
659.780000	21146.915000
660.120000	21278.872500
660.460000	21463.257500
660.810000	21508.312500
661.150000	21615.490000
661.490000	21913.742500
661.840000	21915.520000
662.180000	22126.592500
662.520000	21955.795000
662.870000	22034.300000
663.210000	21867.255000
663.550000	21983.647500
663.890000	22187.692500
664.240000	22191.040000
664.580000	22592.372500
664.920000	22681.050000
665.260000	22909.327500
665.610000	22890.147500
665.950000	22976.640000
666.290000	22976.022500
666.630000	23111.667500
666.980000	23292.847500
667.320000	23396.472500
667.660000	23247.995000
668.000000	23485.425000
668.350000	23832.352500
668.690000	24104.660000
669.030000	24112.920000
669.370000	24106.980000
669.710000	24266.860000
670.060000	24186.852500
670.400000	24527.362500
670.740000	24676.180000
671.080000	24576.647500
671.420000	24654.470000
671.770000	24635.085000
672.110000	24875.515000
672.450000	25181.822500
672.790000	25531.685000
673.130000	25691.632500
673.470000	25837.172500
673.810000	26085.865000
674.160000	26203.350000
674.500000	26258.307500
674.840000	26312.440000
675.180000	26503.310000
675.520000	26689.812500
675.860000	27014.347500
676.200000	27201.597500
676.540000	27162.892500
676.880000	27324.682500
677.230000	27490.500000
677.570000	27907.055000
677.910000	28005.020000
678.250000	28112.195000
678.590000	28414.747500
678.930000	28564.115000
679.270000	28695.250000
679.610000	28757.645000
679.950000	28895.610000
680.290000	29238.167500
680.630000	29318.992500
680.970000	29553.757500
681.310000	29710.360000
681.650000	29971.480000
681.990000	30198.937500
682.330000	30287.270000
682.670000	30300.722500
683.010000	30579.382500
683.350000	30610.715000
683.690000	30473.365000
684.030000	30154.770000
684.370000	30589.485000
684.710000	30928.082500
685.050000	31299.927500
685.390000	31272.210000
685.730000	31332.692500
686.070000	31334.877500
686.410000	28387.577500
686.750000	23907.645000
687.090000	21524.697500
687.430000	22572.030000
687.770000	25774.780000
688.110000	27961.942500
688.450000	28331.120000
688.790000	27786.907500
689.130000	27445.852500
689.470000	27847.255000
689.800000	28469.292500
690.140000	28996.100000
690.480000	29698.275000
690.820000	30316.352500
691.160000	30458.552500
691.500000	31121.137500
691.840000	31756.420000
692.180000	32058.560000
692.520000	32534.167500
692.850000	32335.242500
693.190000	32572.260000
693.530000	32650.015000
693.870000	32473.205000
694.210000	32505.632500
694.550000	32557.787500
694.880000	33185.560000
695.220000	33352.540000
695.560000	33320.862500
695.900000	33653.517500
696.240000	34069.187500
696.580000	34454.752500
696.910000	34834.105000
697.250000	34697.505000
697.590000	34287.435000
697.930000	34119.977500
698.270000	34423.010000
698.600000	34303.202500
698.940000	34259.240000
699.280000	34394.267500
699.620000	34414.135000
699.950000	33977.507500
700.290000	33636.725000
700.630000	33993.140000
700.970000	33877.500000
701.300000	33953.752500
701.640000	33968.357500
701.980000	34055.400000
702.320000	33919.347500
702.650000	34016.215000
702.990000	34698.800000
703.330000	34630.060000
703.660000	34559.950000
704.000000	34824.820000
704.340000	35130.307500
704.680000	35749.410000
705.010000	35269.707500
705.350000	34944.150000
705.690000	34994.872500
706.020000	35233.527500
706.360000	35216.190000
706.700000	35274.010000
707.030000	35265.000000
707.370000	35603.390000
707.710000	35532.257500
708.040000	35324.730000
708.380000	35072.692500
708.720000	34698.665000
709.050000	34947.565000
709.390000	35368.147500
709.720000	35271.687500
710.060000	35475.117500
710.400000	35451.157500
710.730000	35400.985000
711.070000	35302.407500
711.400000	35136.727500
711.740000	35106.760000
712.080000	35156.457500
712.410000	35170.995000
712.750000	35190.995000
713.080000	35172.020000
713.420000	34967.700000
713.750000	35416.275000
714.090000	35422.487500
714.430000	34995.895000
714.760000	34320.677500
715.100000	34220.942500
715.430000	34801.680000
715.770000	34811.167500
716.100000	33989.930000
716.440000	32906.625000
716.770000	31833.832500
717.110000	30823.432500
717.440000	30232.045000
717.780000	29950.452500
718.110000	29454.227500
718.450000	28374.197500
718.780000	28262.720000
719.120000	28098.062500
719.450000	28909.400000
719.790000	28644.532500
720.120000	28841.272500
720.460000	28752.592500
720.790000	30433.842500
721.120000	31991.935000
721.460000	33217.915000
721.790000	33312.057500
722.130000	33055.650000
722.460000	32803.065000
722.800000	32493.822500
723.130000	31115.540000
723.460000	30495.075000
723.800000	30010.867500
724.130000	29962.942500
724.470000	30406.055000
724.800000	30445.242500
725.130000	30032.097500
725.470000	30595.222500
725.800000	31050.415000
726.140000	30797.352500
726.470000	30829.645000
726.800000	31386.692500
727.140000	30916.885000
727.470000	29925.942500
727.800000	30054.830000
728.140000	31027.545000
728.470000	31544.660000
728.800000	29973.592500
729.140000	29535.055000
729.470000	30546.207500
729.800000	31583.090000
730.140000	31293.712500
730.470000	31070.960000
730.800000	30822.340000
731.140000	31094.377500
731.470000	31455.432500
731.800000	31591.900000
732.140000	32250.322500
732.470000	32458.802500
732.800000	32398.730000
733.130000	32587.617500
733.470000	33078.720000
733.800000	33532.962500
734.130000	33673.930000
734.460000	33487.497500
734.800000	33043.022500
735.130000	33042.200000
735.460000	32728.590000
735.790000	32722.310000
736.130000	32926.697500
736.460000	32854.537500
736.790000	32994.280000
737.120000	33271.437500
737.450000	33189.860000
737.790000	33225.767500
738.120000	33132.107500
738.450000	32413.270000
738.780000	31996.917500
739.110000	32295.307500
739.450000	32800.130000
739.780000	32956.117500
740.110000	33126.510000
740.440000	32753.437500
740.770000	32526.110000
741.100000	32356.335000
741.440000	32355.930000
741.770000	32466.995000
742.100000	32378.320000
742.430000	32626.602500
742.760000	32931.955000
743.090000	33488.865000
743.420000	33285.772500
743.750000	33490.297500
744.080000	33014.690000
744.420000	32691.657500
744.750000	32703.125000
745.080000	33064.525000
745.410000	33285.160000
745.740000	33174.910000
746.070000	32952.772500
746.400000	33054.487500
746.730000	33118.045000
747.060000	33156.955000
747.390000	33099.407500
747.720000	32962.942500
748.050000	32962.467500
748.380000	33018.785000
748.710000	33069.915000
749.040000	32556.285000
749.370000	32185.742500
749.710000	32312.780000
750.040000	32374.562500
750.370000	32779.717500
750.700000	32317.220000
751.030000	31885.030000
751.360000	32134.337500
751.690000	32301.657500
752.020000	32427.332500
752.340000	32002.175000
752.670000	31985.655000
753.000000	31865.982500
753.330000	32191.270000
753.660000	32373.472500
753.990000	32307.660000
754.320000	32236.052500
754.650000	32151.745000
754.980000	31988.382500
755.310000	31764.745000
755.640000	31519.605000
755.970000	31805.500000
756.300000	31696.000000
756.630000	31575.102500
756.960000	31303.407500
757.290000	31159.162500
757.610000	31271.117500
757.940000	31262.312500
758.270000	30682.737500
758.600000	30318.060000
758.930000	29646.600000
759.260000	24377.037500
759.590000	16290.840000
759.920000	9427.415000
760.240000	5655.602500
760.570000	4360.535000
760.900000	4841.875000
761.230000	7335.892500
761.560000	12622.585000
761.890000	16586.227500
762.220000	15934.287500
762.540000	13303.332500
762.870000	11530.475000
763.200000	11496.752500
763.530000	11951.810000
763.860000	12810.045000
764.180000	14014.387500
764.510000	15492.267500
764.840000	16822.835000
765.170000	18078.102500
765.500000	19400.957500
765.820000	20252.432500
766.150000	21519.852500
766.480000	22508.542500
766.810000	23775.142500
767.130000	24959.825000
767.460000	25834.307500
767.790000	26406.712500
768.120000	26576.147500
768.440000	27154.767500
768.770000	27040.287500
769.100000	27041.582500
769.420000	27026.840000
769.750000	26996.802500
770.080000	27094.967500
770.410000	27624.707500
770.730000	27682.325000
771.060000	27326.455000
771.390000	27027.385000
771.710000	26826.002500
772.040000	26966.695000
772.370000	26916.455000
772.690000	26773.847500
773.020000	26803.472500
773.350000	26743.470000
773.670000	26792.412500
774.000000	26604.957500
774.330000	26260.215000
774.650000	25754.435000
774.980000	25756.690000
775.300000	25975.412500
775.630000	26145.190000
775.960000	25773.140000
776.280000	25955.615000
776.610000	25836.217500
776.930000	25826.935000
777.260000	25386.347500
777.590000	24960.027500
777.910000	24744.175000
778.240000	24875.652500
778.560000	24775.780000
778.890000	24842.955000
779.220000	24632.762500
779.540000	24676.315000
779.870000	24290.207500
780.190000	24400.455000
780.520000	24190.402500
780.840000	24000.282500
781.170000	24047.045000
781.490000	23975.500000
781.820000	23965.467500
782.140000	23839.037500
782.470000	23879.110000
782.790000	23683.257500
783.120000	23168.535000
783.440000	22965.717500
783.770000	22846.592500
784.090000	22880.862500
784.420000	22998.962500
784.740000	22864.205000
785.070000	22705.557500
785.390000	22452.497500
785.720000	22710.270000
786.040000	22638.110000
786.370000	22571.690000
786.690000	22506.562500
787.010000	22378.427500
787.340000	22083.997500
787.660000	22119.632500
787.990000	22103.385000
788.310000	22222.302500
788.640000	22176.565000
788.960000	22151.785000
789.280000	22014.092500
789.610000	21967.877500
789.930000	21985.147500
790.260000	21855.375000
790.580000	22110.215000
790.900000	22032.732500
791.230000	21876.472500
791.550000	21733.047500
791.870000	21726.900000
792.200000	21548.525000
792.520000	21825.475000
792.850000	21704.575000
793.170000	21356.152500
793.490000	21191.217500
793.820000	21309.182500
794.140000	21456.567500
794.460000	21127.390000
794.780000	21297.850000
795.110000	21506.402500
795.430000	21585.185000
795.750000	21525.245000
796.080000	21151.625000
796.400000	21295.735000
796.720000	21323.450000
797.050000	21403.592500
797.370000	21463.805000
797.690000	21564.565000
798.010000	21535.617500
798.340000	21190.130000
798.660000	21309.457500
798.980000	21247.470000
799.300000	20872.830000
799.630000	20682.847500
799.950000	20412.990000
800.270000	20453.267500
800.590000	20516.822500
800.910000	20646.457500
801.240000	20487.060000
801.560000	20577.240000
801.880000	20513.890000
802.200000	20531.705000
802.530000	20117.810000
802.850000	20095.625000
803.170000	19784.062500
803.490000	20097.127500
803.810000	19898.677500
804.130000	19872.670000
804.460000	19564.587500
804.780000	19360.950000
805.100000	19367.162500
805.420000	19429.147500
805.740000	19694.020000
806.060000	19401.227500
806.380000	19394.740000
806.710000	19342.930000
807.030000	19025.767500
807.350000	18999.892500
807.670000	18857.422500
807.990000	18842.882500
808.310000	18702.870000
808.630000	18442.300000
808.950000	18395.607500
809.270000	18303.925000
809.590000	17986.355000
809.910000	17724.760000
810.240000	17891.192500
810.560000	17652.057500
810.880000	17876.375000
811.200000	17715.135000
811.520000	17552.732500
811.840000	17372.510000
812.160000	17336.672500
812.480000	17097.262500
812.800000	16808.157500
813.120000	16530.452500
813.440000	15949.717500
813.760000	15659.657500
814.080000	15547.017500
814.400000	15448.032500
814.720000	14990.857500
815.040000	14849.892500
815.360000	14498.937500
815.680000	14600.650000
816.000000	14166.960000
816.320000	13593.530000
816.640000	13423.275000
816.960000	13449.692500
817.280000	14297.212500
817.600000	14031.727500
817.920000	13729.992500
818.240000	13326.817500
818.550000	13621.997500
818.870000	13787.675000
819.190000	13765.287500
819.510000	13529.430000
819.830000	13201.955000
820.150000	13571.070000
820.470000	14078.007500
820.790000	14957.340000
821.110000	14656.085000
821.430000	14591.915000
821.750000	14158.292500
822.060000	13933.355000
822.380000	13325.997500
822.700000	12139.472500
823.020000	11109.615000
823.340000	11116.717500
823.660000	12331.432500
823.980000	13509.427500
824.290000	13635.445000
824.610000	13976.365000
824.930000	14028.722500
825.250000	14129.960000
825.570000	13636.262500
825.880000	13496.730000
826.200000	13409.757500
826.520000	13820.992500
826.840000	14008.582500
827.160000	13734.702500
827.470000	13153.352500
827.790000	12705.120000
828.110000	12609.070000
828.430000	12881.042500
828.750000	12695.085000
829.060000	12700.275000
829.380000	12474.587500
829.700000	12723.480000
830.020000	12712.422500
830.330000	12825.542500
830.650000	12490.015000
830.970000	12660.475000
831.280000	12750.995000
831.600000	12709.830000
831.920000	12580.397500
832.240000	12188.757500
832.550000	12335.190000
832.870000	12418.335000
833.190000	12411.785000
833.500000	12167.117500
833.820000	12233.542500
834.140000	12342.220000
834.450000	12367.682500
834.770000	12565.312500
835.090000	12703.072500
835.400000	12726.215000
835.720000	12700.070000
836.040000	12524.080000
836.350000	12607.090000
836.670000	12444.550000
836.990000	12580.057500
837.300000	12510.357500
837.620000	12596.032500
837.930000	12501.825000
838.250000	12486.670000
838.570000	12434.855000
838.880000	12225.962500
839.200000	12281.120000
839.510000	12416.972500
839.830000	12378.880000
840.150000	12275.527500
840.460000	12327.407500
840.780000	12263.170000
841.090000	12253.067500
841.410000	12201.867500
841.720000	12197.430000
842.040000	12095.167500
842.350000	12039.462500
842.670000	12091.620000
842.980000	12039.395000
843.300000	11940.682500
843.620000	11840.535000
843.930000	11733.905000
844.250000	11773.840000
844.560000	11701.410000
844.880000	11658.745000
845.190000	11699.500000
845.510000	11825.107500
845.820000	11817.667500
846.130000	11857.875000
846.450000	11706.872500
846.760000	11558.052500
847.080000	11419.335000
847.390000	11411.215000
847.710000	11477.365000
848.020000	11515.932500
848.340000	11445.892500
848.650000	11369.025000
848.970000	11422.340000
849.280000	11310.522500
849.590000	10771.290000
849.910000	10103.995000
850.220000	9900.972500
850.540000	10295.615000
850.850000	10892.600000
851.160000	10949.942500
851.480000	10827.065000
851.790000	10685.617500
852.100000	10680.225000
852.420000	10885.907500
852.730000	10797.165000
853.050000	10688.417500
853.360000	10578.575000
853.670000	10224.960000
853.990000	9260.710000
854.300000	8250.037500
854.610000	8045.922500
854.930000	8715.815000
855.240000	9734.542500
855.550000	10100.242500
855.870000	10181.067500
856.180000	10251.037500
856.490000	10352.415000
856.800000	10401.975000
857.120000	10472.017500
857.430000	10382.517500
857.740000	10309.200000
858.060000	10295.752500
858.370000	10182.500000
858.680000	10164.957500
858.990000	10145.500000
859.310000	10124.132500
859.620000	10067.815000
859.930000	9922.612500
860.240000	9906.297500
860.560000	9899.267500
860.870000	9982.072500
861.180000	9810.250000
861.490000	9685.800000
861.800000	9718.842500
862.120000	9779.392500
862.430000	9728.875000
862.740000	9674.262500
863.050000	9713.722500
863.360000	9713.310000
863.680000	9660.882500
863.990000	9581.015000
864.300000	9620.672500
864.610000	9542.647500
864.920000	9379.422500
865.230000	9303.102500
865.550000	9105.200000
865.860000	8794.657500
866.170000	7964.482500
866.480000	7428.257500
866.790000	7438.357500
867.100000	8242.120000
867.410000	8687.960000
867.720000	8781.347500
868.040000	8772.540000
868.350000	8864.905000
868.660000	8823.262500
868.970000	8712.535000
869.280000	8604.680000
869.590000	8716.837500
869.900000	8754.587500
870.210000	8752.472500
870.520000	8708.372500
870.830000	8701.202500
871.140000	8514.022500
871.450000	8490.742500
871.760000	8409.507500
872.070000	8420.770000
872.380000	8482.070000
872.690000	8404.452500
873.000000	8329.362500
873.310000	8243.005000
873.620000	8147.777500
873.930000	8110.502500
874.240000	8059.712500
874.550000	8034.180000
874.860000	8009.537500
875.170000	7958.337500
875.480000	7873.075000
875.790000	7883.040000
876.100000	7878.807500
876.410000	7892.395000
876.720000	7831.567500
877.030000	7746.712500
877.340000	7671.690000
877.650000	7637.760000
877.960000	7617.692500
878.270000	7629.162500
878.580000	7594.552500
878.890000	7544.922500
879.200000	7460.885000
879.510000	7348.932500
879.810000	7317.665000
880.120000	7331.045000
880.430000	7223.390000
880.740000	7011.902500
881.050000	6904.657500
881.360000	6906.637500
881.670000	7200.657500
881.980000	7209.397500
882.280000	7122.630000
882.590000	7040.847500
882.900000	7062.695000
883.210000	7062.695000
883.520000	7111.982500
883.830000	7028.357500
884.130000	7062.420000
884.440000	7023.100000
884.750000	7058.527500
885.060000	7073.750000
885.370000	7056.070000
885.680000	7079.622500
885.980000	6980.775000
886.290000	6891.212500
886.600000	6788.812500
886.910000	6748.465000
887.210000	6833.050000
887.520000	6937.902500
887.830000	6992.380000
888.140000	6960.430000
888.440000	6951.762500
888.750000	7043.440000
889.060000	7057.437500
889.370000	7018.595000
889.670000	7013.747500
889.980000	6966.165000
890.290000	6996.067500
890.600000	7019.412500
890.900000	7005.280000
891.210000	6994.700000
891.520000	6979.067500
891.820000	6954.695000
892.130000	6952.852500
892.440000	6838.782500
892.740000	6818.165000
893.050000	6698.155000
893.360000	6637.740000
893.660000	6713.035000
893.970000	6763.622500
894.280000	6687.027500
894.580000	6608.250000
894.890000	6425.092500
895.200000	6294.775000
895.500000	6208.895000
895.810000	6232.787500
896.110000	6102.810000
896.420000	5963.340000
896.730000	5793.565000
897.030000	5702.500000
897.340000	5710.762500
897.640000	5724.825000
897.950000	5757.112500
898.260000	5851.045000
898.560000	5659.832500
898.870000	5263.960000
899.170000	4865.292500
899.480000	4917.650000
899.780000	5279.527500
900.090000	5568.427500
900.390000	5369.567500
900.700000	5122.175000
901.000000	5141.767500
901.310000	5163.132500
901.620000	5205.390000
901.920000	5188.527500
902.230000	5155.352500
902.530000	5255.975000
902.840000	5257.067500
903.140000	5410.802500
903.440000	5800.392500
903.750000	5998.910000
904.050000	6080.215000
904.360000	6055.842500
904.660000	5920.677500
904.970000	5951.467500
905.270000	5891.255000
905.580000	5887.842500
905.880000	5768.650000
906.190000	5626.520000
906.490000	5356.802500
906.790000	5155.082500
907.100000	5093.912500
907.400000	4946.527500
907.710000	4857.302500
908.010000	4848.565000
908.310000	4772.245000
908.620000	4674.285000
908.920000	4709.100000
909.230000	4584.240000
909.530000	4631.277500
909.830000	4659.740000
910.140000	4685.342500
910.440000	4573.045000
910.740000	4638.037500
911.050000	4659.127500
911.350000	4760.367500
911.650000	4785.560000
911.960000	4697.217500
912.260000	4648.887500
912.560000	4776.480000
912.870000	4638.717500
913.170000	4407.230000
913.470000	4119.490000
913.780000	4040.780000
914.080000	4104.127500
914.380000	4432.420000
914.690000	4584.717500
914.990000	4429.960000
915.290000	4171.777500
915.590000	3892.030000
915.900000	3835.572500
916.200000	4066.172500
916.500000	4248.577500
916.800000	4366.135000
917.110000	4214.242500
917.410000	3999.067500
917.710000	3795.772500
918.010000	3826.422500
918.310000	4009.787500
918.620000	4136.010000
918.920000	4162.975000
919.220000	4289.607500
919.520000	4222.025000
919.820000	4190.075000
920.130000	4211.237500
920.430000	4276.500000
920.730000	4359.855000
921.030000	4212.260000
921.330000	4068.495000
921.630000	3972.105000
921.940000	3916.672500
922.240000	3938.927500
922.540000	3997.430000
922.840000	3950.055000
923.140000	3860.970000
923.440000	3820.212500
923.740000	3772.015000
924.050000	3708.392500
924.350000	3676.102500
924.650000	3689.007500
924.950000	3674.262500
925.250000	3672.347500
925.550000	3657.875000
925.850000	3611.867500
926.150000	3581.762500
926.450000	3597.940000
926.750000	3717.677500
927.050000	3702.930000
927.350000	3615.892500
927.650000	3452.055000
927.950000	3251.560000
928.250000	3044.577500
928.560000	2996.315000
928.860000	2965.255000
929.160000	2877.532500
929.460000	2800.940000
929.760000	2629.387500
930.060000	2507.195000
930.360000	2371.685000
930.660000	2340.622500
930.960000	2233.380000
931.260000	2066.127500
931.550000	1957.310000
931.850000	1745.620000
932.150000	1592.365000
932.450000	1513.857500
932.750000	1490.100000
933.050000	1475.902500
933.350000	1452.622500
933.650000	1260.460000
933.950000	1095.185000
934.250000	982.957500
934.550000	982.205000
934.850000	1105.495000
935.150000	1336.297500
935.450000	1381.492500
935.750000	1240.932500
936.040000	1226.732500
936.340000	1269.330000
936.640000	1323.807500
936.940000	1206.117500
937.240000	1134.232500
937.540000	1145.972500
937.840000	1157.445000
938.140000	1152.322500
938.430000	1253.422500
938.730000	1472.282500
939.030000	1736.747500
939.330000	1948.845000
939.630000	2085.512500
939.920000	2077.665000
940.220000	1956.972500
940.520000	1856.007500
940.820000	1794.362500
941.120000	1712.172500
941.420000	1678.035000
941.710000	1728.007500
942.010000	1727.122500
942.310000	1699.745000
942.610000	1562.257500
942.900000	1359.917500
943.200000	1341.622500
943.500000	1437.060000
943.800000	1365.175000
944.090000	1197.927500
944.390000	1102.080000
944.690000	1195.605000
944.990000	1383.950000
945.280000	1450.642500
945.580000	1366.270000
945.880000	1270.355000
946.170000	1203.727500
946.470000	1231.852500
946.770000	1309.947500
947.060000	1377.737500
947.360000	1390.642500
947.660000	1385.930000
947.960000	1328.585000
948.250000	1286.805000
948.550000	1351.250000
948.840000	1466.005000
949.140000	1501.707500
949.440000	1378.145000
949.730000	1193.215000
950.030000	1074.025000
950.330000	1122.627500
950.620000	1331.725000
950.920000	1539.525000
951.210000	1634.212500
951.510000	1544.440000
951.810000	1313.840000
952.100000	1164.475000
952.400000	1096.617500
952.690000	1120.035000
952.990000	1193.487500
953.290000	1334.795000
953.580000	1404.840000
953.880000	1419.857500
954.170000	1364.425000
954.470000	1278.342500
954.760000	1236.017500
955.060000	1241.275000
955.350000	1200.247500
955.650000	1171.642500
955.940000	1201.475000
956.240000	1197.787500
956.530000	1171.095000
956.830000	1173.487500
957.120000	1264.825000
957.420000	1397.057500
957.710000	1441.497500
958.010000	1413.920000
958.300000	1368.385000
958.600000	1312.407500
958.890000	1213.490000
959.190000	1104.400000
959.480000	1104.672500
959.780000	1155.872500
960.070000	1262.232500
960.370000	1284.552500
960.660000	1304.830000
960.950000	1342.580000
961.250000	1365.037500
961.540000	1380.605000
961.840000	1335.342500
962.130000	1276.705000
962.420000	1221.817500
962.720000	1251.922500
963.010000	1344.765000
963.310000	1399.922500
963.600000	1376.030000
963.890000	1320.667500
964.190000	1294.180000
964.480000	1275.542500
964.770000	1285.647500
965.070000	1311.242500
965.360000	1373.367500
965.650000	1356.777500
965.950000	1319.847500
966.240000	1263.255000
966.530000	1254.380000
966.830000	1270.900000
967.120000	1324.150000
967.410000	1429.485000
967.710000	1496.042500
968.000000	1495.017500
968.290000	1477.062500
968.580000	1485.527500
968.880000	1501.842500
969.170000	1520.890000
969.460000	1498.497500
969.760000	1490.445000
970.050000	1451.190000
970.340000	1435.967500
970.630000	1470.580000
970.920000	1471.807500
971.220000	1467.235000
971.510000	1430.985000
971.800000	1427.022500
972.090000	1402.177500
972.390000	1395.895000
972.680000	1356.847500
972.970000	1355.482500
973.260000	1314.455000
973.550000	1257.862500
973.840000	1194.852500
974.140000	1194.922500
974.430000	1175.532500
974.720000	1214.307500
975.010000	1205.982500
975.300000	1199.017500
975.590000	1162.972500
975.890000	1128.432500
976.180000	1117.917500
976.470000	1118.192500
976.760000	1122.627500
977.050000	1148.090000
977.340000	1193.215000
977.630000	1210.485000
977.920000	1167.682500
978.210000	1145.155000
978.510000	1123.992500
978.800000	1100.375000
979.090000	1092.387500
979.380000	1072.657500
979.670000	1077.847500
979.960000	1056.682500
980.250000	1063.100000
980.540000	1071.975000
980.830000	1068.632500
981.120000	1096.890000
981.410000	1126.382500
981.700000	1092.657500
981.990000	1084.942500
982.280000	1082.215000
982.570000	1043.030000
982.860000	1038.390000
983.150000	1001.387500
983.440000	1009.922500
983.730000	1022.347500
984.020000	1015.520000
984.310000	1001.797500
984.600000	1006.170000
984.890000	993.265000
985.180000	964.455000
985.470000	958.040000
985.760000	945.275000
986.050000	962.067500
986.340000	950.120000
986.630000	923.837500
986.920000	913.120000
987.210000	901.650000
987.490000	896.670000
987.780000	890.592500
988.070000	875.575000
988.360000	861.785000
988.650000	848.882500
988.940000	844.787500
989.230000	829.292500
989.520000	810.175000
989.800000	792.292500
990.090000	787.582500
990.380000	782.527500
990.670000	767.512500
990.960000	752.085000
991.250000	746.350000
991.540000	729.010000
991.820000	717.540000
992.110000	709.280000
992.400000	702.727500
992.690000	692.420000
992.980000	690.915000
993.260000	656.170000
993.550000	643.267500
993.840000	636.507500
994.130000	641.082500
994.420000	627.497500
994.700000	598.962500
994.990000	588.245000
995.280000	580.805000
995.570000	567.012500
995.850000	555.682500
996.140000	527.007500
996.430000	547.490000
996.720000	532.610000
997.000000	512.130000
997.290000	507.415000
997.580000	478.610000
997.860000	474.245000
998.150000	489.667500
998.440000	464.207500
998.730000	457.310000
999.010000	429.870000
999.300000	438.262500
999.590000	416.557500
999.870000	416.557500
1000.160000	393.757500
1000.450000	377.235000
1000.730000	371.092500
1001.020000	369.385000
1001.300000	357.510000
1001.590000	353.342500
1001.880000	347.610000
1002.160000	336.890000
1002.450000	314.840000
1002.740000	313.747500
1003.020000	295.727500
1003.310000	293.815000
1003.590000	277.635000
1003.880000	260.980000
1004.170000	267.260000
1004.450000	259.612500
1004.740000	248.420000
1005.020000	240.295000
1005.310000	240.907500
1005.590000	210.327500
1005.880000	201.517500
1006.160000	194.557500
1006.450000	192.577500
1006.730000	196.470000
1007.020000	196.675000
1007.310000	191.620000
1007.590000	185.270000
1007.880000	164.997500
1008.160000	188.277500
1008.450000	179.675000
1008.730000	168.345000
1009.020000	161.245000
1009.300000	165.887500
1009.580000	161.107500
1009.870000	158.237500
1010.150000	146.772500
1010.440000	139.330000
1010.720000	147.042500
1011.010000	141.582500
1011.290000	131.272500
1011.580000	127.110000
1011.860000	123.630000
1012.140000	121.035000
1012.430000	121.307500
1012.710000	109.090000
1013.000000	100.760000
1013.280000	99.805000
1013.560000	102.195000
1013.850000	104.037500
1014.130000	94.755000
1014.420000	94.477500
1014.700000	75.707500
1014.980000	78.095000
1015.270000	76.525000
1015.550000	75.160000
1015.830000	68.675000
1016.120000	53.315000
1016.400000	53.042500
1016.680000	60.075000
1016.970000	54.542500
1017.250000	63.420000
1017.530000	50.450000
1017.820000	52.632500
1018.100000	52.700000
1018.380000	42.665000
1018.670000	36.932500
1018.950000	46.352500
1019.230000	38.845000
1019.510000	38.092500
1019.800000	37.000000
1020.080000	34.270000
1020.360000	30.857500
1020.640000	30.242500
1020.930000	26.215000
1021.210000	23.552500
1021.490000	22.800000
1021.770000	24.370000
1022.060000	19.115000
1022.340000	16.520000
1022.620000	19.182500
1022.900000	13.722500
1023.180000	13.585000
1023.470000	8.737500
1023.750000	7.577500
1024.030000	1.502500
1024.310000	5.940000
1024.590000	2.730000
1024.870000	2.595000
1025.160000	2.595000
1025.440000	2.595000
