SpectraSuite Data File
++++++++++++++++++++++++++++++++++++
Date: Mon Apr 24 13:47:08 ART 2023
User: guille
Dark Spectrum Present: No
Reference Spectrum Present: No
Number of Sampled Component Spectra: 1
Spectrometers: USB2+H13674
Integration Time (usec): 3000 (USB2+H13674)
Spectra Averaged: 10 (USB2+H13674)
Boxcar Smoothing: 0 (USB2+H13674)
Correct for Electrical Dark: No (USB2+H13674)
Strobe/Lamp Enabled: No (USB2+H13674)
Correct for Detector Non-linearity: No (USB2+H13674)
Correct for Stray Light: No (USB2+H13674)
Number of Pixels in Processed Spectrum: 2048
>>>>>Begin Processed Spectral Data<<<<<
339.87	0.00
340.25	0.00
340.63	0.00
341.02	0.00
341.40	0.00
341.78	0.00
342.16	0.00
342.55	0.00
342.93	0.00
343.31	0.00
343.69	0.00
344.08	0.00
344.46	0.00
344.84	0.00
345.22	0.00
345.60	0.00
345.99	0.00
346.37	0.00
346.75	0.00
347.13	0.00
347.51	0.00
347.90	0.00
348.28	0.00
348.66	0.00
349.04	0.00
349.42	0.00
349.80	0.00
350.19	0.00
350.57	0.00
350.95	0.00
351.33	0.00
351.71	0.00
352.09	0.00
352.47	0.00
352.86	0.00
353.24	0.00
353.62	0.00
354.00	0.00
354.38	0.00
354.76	0.00
355.14	0.00
355.52	0.00
355.90	0.00
356.28	0.00
356.67	0.00
357.05	0.00
357.43	0.00
357.81	0.00
358.19	0.00
358.57	0.00
358.95	0.00
359.33	0.00
359.71	0.00
360.09	0.00
360.47	0.00
360.85	0.00
361.23	0.00
361.61	0.00
361.99	0.00
362.37	0.00
362.75	0.00
363.13	0.00
363.51	0.00
363.89	0.00
364.27	0.00
364.65	0.00
365.03	0.00
365.41	0.00
365.79	0.00
366.17	0.00
366.55	0.00
366.93	0.00
367.31	0.00
367.69	0.00
368.07	0.00
368.45	0.00
368.83	0.00
369.21	0.00
369.59	0.00
369.97	0.00
370.35	0.00
370.73	0.00
371.11	0.00
371.49	0.00
371.87	0.00
372.25	0.00
372.62	0.00
373.00	0.00
373.38	0.00
373.76	0.00
374.14	0.00
374.52	0.00
374.90	0.00
375.28	0.00
375.66	0.00
376.03	0.00
376.41	0.00
376.79	0.00
377.17	0.00
377.55	0.00
377.93	0.00
378.31	0.00
378.68	0.00
379.06	0.00
379.44	0.00
379.82	0.00
380.20	0.00
380.58	0.00
380.95	0.00
381.33	0.00
381.71	0.00
382.09	0.00
382.47	0.00
382.85	0.00
383.22	0.00
383.60	0.00
383.98	0.00
384.36	0.00
384.73	0.00
385.11	0.00
385.49	0.00
385.87	0.00
386.25	5.46
386.62	5.73
387.00	1.64
387.38	4.92
387.76	11.20
388.13	10.38
388.51	12.29
388.89	37.68
389.26	66.35
389.64	121.79
390.02	152.92
390.40	185.14
390.77	175.31
391.15	262.41
391.53	310.20
391.90	318.39
392.28	291.90
392.66	228.83
393.04	136.80
393.41	30.58
393.79	58.16
394.17	165.20
394.54	321.12
394.92	466.39
395.30	554.32
395.67	600.46
396.05	582.99
396.42	490.15
396.80	277.43
397.18	229.10
397.55	380.92
397.93	668.46
398.31	841.03
398.68	1014.70
399.06	1074.77
399.44	1187.28
399.81	1247.08
400.19	1273.29
400.56	1339.10
400.94	1398.90
401.32	1428.12
401.69	1523.69
402.07	1596.32
402.44	1665.41
402.82	1650.12
403.19	1645.75
403.57	1675.24
403.95	1743.50
404.32	1845.90
404.70	1743.50
405.07	1792.66
405.45	1872.39
405.82	1924.00
406.20	1875.39
406.57	1900.51
406.95	1909.25
407.32	1969.05
407.70	2023.67
408.07	2162.38
408.45	2166.48
408.82	2374.55
409.20	2442.54
409.57	2402.40
409.95	2226.82
410.32	2142.72
410.70	2197.06
411.07	2399.13
411.45	2696.49
411.82	2750.01
412.20	2778.14
412.57	2746.19
412.95	2723.53
413.32	2682.57
413.70	2773.77
414.07	2875.35
414.45	2865.52
414.82	2905.66
415.19	2864.97
415.57	2889.82
415.94	3009.97
416.32	3048.47
416.69	3220.23
417.07	3178.72
417.44	3103.90
417.81	3024.99
418.19	3000.68
418.56	3042.46
418.94	3049.29
419.31	3254.63
419.68	3230.06
420.06	3254.09
420.43	3250.26
420.80	3479.36
421.18	3702.45
421.55	3681.97
421.93	3741.78
422.30	3665.86
422.67	3430.21
423.05	3464.07
423.42	3584.49
423.79	3820.96
424.17	3929.92
424.54	4111.50
424.91	4027.67
425.29	4032.31
425.66	4088.84
426.03	4068.63
426.40	4353.44
426.78	4384.02
427.15	4241.75
427.52	4177.04
427.90	4214.99
428.27	4595.91
428.64	4529.29
429.02	4477.68
429.39	4367.91
429.76	4191.51
430.13	3968.96
430.51	3618.08
430.88	3517.32
431.25	3839.80
431.62	4639.33
432.00	5366.77
432.37	5649.94
432.74	5477.91
433.11	5513.13
433.48	5880.95
433.86	5666.87
434.23	5162.52
434.60	5244.98
434.97	5613.35
435.35	5945.39
435.72	5942.39
436.09	6209.44
436.46	6434.44
436.83	6487.96
437.21	6363.45
437.58	6105.13
437.95	6116.60
438.32	5692.81
438.69	5540.44
439.06	5630.82
439.44	5976.25
439.81	6265.15
440.18	6357.17
440.55	6158.11
440.92	6203.43
441.29	6482.78
441.66	6671.46
442.03	6744.64
442.41	6749.01
442.78	6967.46
443.15	6946.71
443.52	6978.39
443.89	6997.50
444.26	7102.36
444.63	7252.27
445.00	7443.96
445.37	7269.74
445.74	7061.67
446.12	6890.73
446.49	6988.22
446.86	7359.03
447.23	7700.64
447.60	8148.73
447.97	8284.99
448.34	8076.10
448.71	8136.72
449.08	8218.91
449.45	8416.88
449.82	8572.80
450.19	8934.88
450.56	9440.59
450.93	9572.48
451.30	9667.23
451.67	9661.77
452.04	9609.62
452.41	9770.18
452.78	9499.30
453.15	9328.63
453.52	9266.65
453.89	9651.67
454.26	10204.89
454.63	10485.05
455.00	10393.58
455.37	10449.56
455.74	10733.54
456.11	11387.80
456.48	11506.31
456.85	11794.66
457.22	11771.18
457.59	12286.99
457.96	12195.52
458.33	12123.43
458.70	12133.53
459.07	12410.42
459.43	12380.65
459.80	12490.15
460.17	12456.29
460.54	13163.25
460.91	13152.06
461.28	13431.13
461.65	13582.67
462.02	13707.46
462.39	13805.22
462.76	14030.77
463.12	14207.71
463.49	14089.21
463.86	13958.68
464.23	13958.41
464.60	13634.28
464.97	13532.70
465.34	13696.54
465.70	14123.61
466.07	14214.27
466.44	14085.93
466.81	13799.76
467.18	13441.50
467.55	13875.94
467.91	14102.04
468.28	14074.73
468.65	14255.23
469.02	14502.90
469.39	14700.59
469.75	14663.18
470.12	14360.90
470.49	13843.72
470.86	14066.27
471.23	14207.71
471.59	14668.37
471.96	15135.85
472.33	15725.67
472.70	15955.31
473.06	15765.54
473.43	15252.73
473.80	15614.26
474.17	15938.93
474.53	16477.41
474.90	16559.60
475.27	16908.85
475.64	16626.23
476.00	16534.48
476.37	16457.75
476.74	16504.99
477.11	16695.86
477.47	17351.76
477.84	18070.18
478.21	18487.42
478.57	18189.24
478.94	18035.78
479.31	18157.02
479.67	19042.01
480.04	19378.15
480.41	18975.93
480.77	19321.36
481.14	19204.21
481.51	19568.75
481.87	19867.21
482.24	20146.55
482.61	19846.73
482.97	19826.80
483.34	20079.38
483.71	19903.25
484.07	19895.06
484.44	20117.61
484.80	20401.86
485.17	20331.14
485.54	20064.36
485.90	18443.46
486.27	16764.13
486.63	16973.84
487.00	18139.54
487.37	19676.88
487.73	20273.80
488.10	21318.54
488.46	21677.61
488.83	21436.23
489.19	21188.28
489.56	21771.55
489.93	23003.60
490.29	23379.61
490.66	23043.20
491.02	22769.32
491.39	23116.11
491.75	22730.81
492.12	22231.11
492.48	21809.50
492.85	23103.27
493.21	24218.73
493.58	24076.74
493.94	23084.43
494.31	23448.42
494.67	23896.79
495.04	24320.31
495.40	24395.68
495.77	23605.98
496.13	23882.87
496.50	24146.10
496.86	24480.60
497.23	24439.64
497.59	24313.76
497.96	24361.82
498.32	23194.47
498.69	22918.68
499.05	23121.84
499.41	23934.20
499.78	23843.00
500.14	23582.77
500.51	22863.80
500.87	22675.11
501.24	22487.24
501.60	22387.58
501.96	22032.59
502.33	22575.44
502.69	22849.05
503.06	23387.26
503.42	23600.25
503.78	23277.21
504.15	22693.41
504.51	22510.18
504.88	23163.35
505.24	23643.66
505.60	23827.71
505.97	24656.45
506.33	24671.74
506.69	24201.80
507.06	23884.78
507.42	23630.56
507.78	23353.94
508.15	22981.21
508.51	22997.87
508.87	23273.39
509.24	23975.71
509.60	23869.21
509.96	23397.63
510.33	23379.88
510.69	23405.28
511.05	23430.95
511.41	24230.47
511.78	24617.40
512.14	24395.68
512.50	24007.93
512.87	23636.02
513.23	23324.73
513.59	23614.99
513.95	23361.04
514.32	23243.08
514.68	23411.01
515.04	23756.16
515.40	24030.32
515.77	24194.70
516.13	24346.25
516.49	23411.56
516.85	21311.71
517.22	19846.18
517.58	20835.21
517.94	22254.05
518.30	22443.55
518.66	21811.14
519.03	22283.27
519.39	23466.45
519.75	24007.66
520.11	24648.81
520.47	25150.15
520.83	25085.43
521.20	25206.40
521.56	25642.21
521.92	26108.60
522.28	26060.27
522.64	26002.10
523.00	25504.86
523.37	25735.32
523.73	26732.55
524.09	27576.04
524.45	28215.82
524.81	28492.98
525.17	27889.78
525.53	27986.18
525.89	28319.86
526.26	27717.48
526.62	26798.08
526.98	25402.19
527.34	25926.74
527.70	27139.68
528.06	28283.27
528.42	28876.09
528.78	29658.68
529.14	30839.13
529.50	31139.23
529.86	30569.89
530.22	30373.29
530.59	30916.14
530.95	31992.82
531.31	32047.43
531.67	31944.76
532.03	31536.81
532.39	30686.49
532.75	29600.52
533.11	29239.81
533.47	29967.52
533.83	31002.70
534.19	31544.18
534.55	31261.56
534.91	31588.69
535.27	32078.02
535.63	32665.37
535.99	32925.06
536.35	32543.59
536.71	31633.74
537.07	30538.22
537.43	30676.66
537.79	31299.52
538.15	31818.06
538.51	31893.43
538.87	31767.27
539.22	31554.01
539.58	31075.06
539.94	30453.84
540.30	30055.17
540.66	29489.93
541.02	29330.74
541.38	29943.76
541.74	30492.89
542.10	30978.94
542.46	31353.04
542.82	31213.77
543.18	31174.45
543.53	31293.51
543.89	31813.15
544.25	32510.55
544.61	32145.74
544.97	31963.06
545.33	31638.93
545.69	32007.57
546.05	31637.84
546.40	31835.81
546.76	31876.22
547.12	32082.93
547.48	31966.88
547.84	31699.83
548.20	31374.88
548.55	31702.01
548.91	32198.16
549.27	32452.11
549.63	32331.69
549.99	32269.71
550.34	31847.28
550.70	31904.35
551.06	31924.56
551.42	31790.21
551.78	31948.86
552.13	31804.95
552.49	31712.66
552.85	31463.35
553.21	31342.39
553.57	31021.81
553.92	31567.94
554.28	31363.14
554.64	31192.20
555.00	31431.95
555.35	31126.12
555.71	30854.70
556.07	30783.15
556.42	30521.29
556.78	30192.52
557.14	30000.01
557.50	29620.18
557.85	29686.81
558.21	30009.84
558.57	29330.74
558.92	28748.02
559.28	28466.77
559.64	28992.68
559.99	29340.57
560.35	29479.01
560.71	30117.16
561.06	31045.02
561.42	30559.79
561.78	30020.49
562.13	29789.21
562.49	30193.07
562.85	30313.76
563.20	30394.86
563.56	30391.86
563.92	30083.30
564.27	29938.57
564.63	29734.59
564.98	29827.44
565.34	29666.88
565.70	28822.02
566.05	27961.60
566.41	27719.67
566.76	28358.91
567.12	28615.86
567.48	28917.86
567.83	28944.62
568.19	28288.18
568.54	27744.24
568.90	27419.84
569.25	27754.07
569.61	27925.83
569.97	28073.01
570.32	28035.60
570.68	27457.25
571.03	26807.64
571.39	26747.84
571.74	27359.50
572.10	28081.47
572.45	28635.52
572.81	28667.74
573.16	28519.74
573.52	28232.75
573.87	27948.22
574.23	27948.49
574.58	27743.70
574.94	27575.76
575.29	27316.35
575.65	27215.32
576.00	27168.35
576.36	27399.91
576.71	27369.87
577.07	27443.33
577.42	27433.22
577.78	27016.53
578.13	26448.56
578.48	26058.08
578.84	25839.09
579.19	25629.92
579.55	25745.42
579.90	25828.98
580.26	25996.92
580.61	25801.95
580.96	25513.05
581.32	25617.09
581.67	25631.28
582.03	25389.90
582.38	25237.80
582.73	25417.20
583.09	25140.86
583.44	25231.79
583.79	25137.04
584.15	25072.87
584.50	25343.20
584.86	25116.83
585.21	24831.21
585.56	24203.99
585.92	23821.97
586.27	23633.56
586.62	23908.81
586.98	24071.55
587.33	24320.58
587.68	23983.08
588.04	23924.10
588.39	23690.63
588.74	22720.71
589.09	21704.92
589.45	20732.54
589.80	20861.43
590.15	21402.37
590.51	22466.49
590.86	22804.81
591.21	22716.07
591.56	22678.66
591.92	22574.62
592.27	23109.83
592.62	23762.44
592.97	23472.45
593.33	23360.22
593.68	23456.07
594.03	23509.86
594.38	23474.91
594.74	22920.59
595.09	22761.67
595.44	22842.50
595.79	23076.51
596.14	23494.30
596.50	23201.03
596.85	23322.81
597.20	23205.67
597.55	22917.59
597.90	22690.95
598.26	22483.69
598.61	22693.68
598.96	22633.06
599.31	23020.53
599.66	23041.29
600.01	23251.82
600.37	23156.52
600.72	23106.00
601.07	23081.70
601.42	23194.47
601.77	23200.21
602.12	23146.14
602.47	23222.60
602.83	23318.45
603.18	23631.92
603.53	23842.45
603.88	24064.18
604.23	24084.66
604.58	24057.35
604.93	24101.59
605.28	24007.38
605.63	24071.55
605.98	24309.66
606.33	24234.57
606.69	24246.58
607.04	24501.90
607.39	24758.30
607.74	24695.23
608.09	24336.70
608.44	24262.70
608.79	24273.07
609.14	24686.76
609.49	24520.19
609.84	24428.72
610.19	24468.31
610.54	24312.94
610.89	24443.46
611.24	24719.53
611.59	24806.09
611.94	24608.67
612.29	24520.19
612.64	24653.99
612.99	24798.72
613.34	24824.11
613.69	24620.68
614.04	24655.36
614.39	25062.77
614.74	25509.50
615.09	25936.84
615.44	26143.55
615.79	25791.03
616.14	25016.62
616.48	24656.45
616.83	24438.55
617.18	24516.64
617.53	24811.55
617.88	25073.69
618.23	25412.02
618.58	25346.48
618.93	25178.82
619.28	25267.57
619.63	25286.95
619.98	25879.50
620.32	26095.22
620.67	26517.65
621.02	26538.13
621.37	26242.67
621.72	25785.84
622.07	25600.97
622.42	25373.79
622.76	25588.41
623.11	25412.56
623.46	25134.04
623.81	25108.64
624.16	25073.42
624.51	24814.28
624.85	24458.75
625.20	24245.77
625.55	23924.92
625.90	23579.49
626.25	23891.88
626.59	24120.98
626.94	24436.36
627.29	24166.03
627.64	23781.83
627.99	23662.23
628.33	23574.85
628.68	23869.76
629.03	24218.73
629.38	24302.84
629.72	24145.82
630.07	23846.00
630.42	23849.55
630.77	24248.77
631.11	24528.93
631.46	23963.15
631.81	23581.95
632.16	23878.22
632.50	23867.30
632.85	24226.92
633.20	23962.33
633.54	23655.13
633.89	23539.35
634.24	23352.03
634.58	23572.39
634.93	23412.38
635.28	23499.76
635.63	23412.11
635.97	23150.78
636.32	22998.96
636.67	22881.00
637.01	22795.53
637.36	23095.08
637.70	23152.42
638.05	23198.02
638.40	23078.42
638.74	23375.79
639.09	23232.70
639.44	23030.36
639.78	22904.76
640.13	22672.11
640.47	22455.02
640.82	22359.45
641.17	21950.13
641.51	21878.59
641.86	22024.40
642.20	22157.38
642.55	22399.04
642.90	22324.50
643.24	22207.90
643.59	22409.97
643.93	22469.49
644.28	22272.62
644.62	22326.14
644.97	22287.09
645.31	21903.44
645.66	21833.26
646.00	21733.32
646.35	21641.30
646.70	21680.89
647.04	21552.28
647.39	21498.76
647.73	21242.90
648.08	21362.77
648.42	21426.40
648.77	21165.62
649.11	21161.52
649.46	20614.58
649.80	20499.89
650.14	21054.48
650.49	21241.53
650.83	21549.55
651.18	21604.98
651.52	21391.72
651.87	21507.22
652.21	21496.57
652.56	21690.17
652.90	21671.88
653.25	21786.29
653.59	22021.13
653.93	22223.74
654.28	22135.54
654.62	21994.37
654.97	21570.03
655.31	21367.69
655.65	20736.91
656.00	19396.99
656.34	18183.23
656.69	18085.20
657.03	19357.67
657.37	20737.73
657.72	21545.18
658.06	22204.35
658.40	22670.47
658.75	22593.19
659.09	22482.87
659.43	22437.00
659.78	22569.98
660.12	22450.93
660.46	22823.93
660.81	22916.50
661.15	22981.21
661.49	23224.78
661.84	23313.53
662.18	23573.49
662.52	23455.25
662.87	23551.37
663.21	23498.67
663.55	23884.50
663.89	24196.61
664.24	24232.39
664.58	24796.53
664.92	24776.05
665.26	25211.59
665.61	24734.55
665.95	24857.70
666.29	24867.80
666.63	24684.85
666.98	24641.71
667.32	24876.81
667.66	24906.58
668.00	25057.03
668.35	25273.03
668.69	25385.80
669.03	25557.56
669.37	25769.45
669.71	25884.69
670.06	25815.60
670.40	26402.14
670.74	26470.68
671.08	26457.84
671.42	26934.61
671.77	26810.10
672.11	26923.14
672.45	27322.36
672.79	27911.90
673.13	28259.24
673.47	28259.78
673.81	28724.26
674.16	28852.06
674.50	29102.18
674.84	29145.33
675.18	29448.15
675.52	29607.35
675.86	30179.41
676.20	30301.20
676.54	30337.24
676.88	30127.53
677.23	29925.19
677.57	30050.80
677.91	30105.69
678.25	29842.18
678.59	29836.72
678.93	29814.33
679.27	30045.07
679.61	29927.92
679.95	30067.73
680.29	30345.71
680.63	30595.01
680.97	30882.00
681.31	31259.10
681.65	31417.48
681.99	31749.25
682.33	31970.16
682.67	32170.31
683.01	32576.36
683.35	32853.79
683.69	32790.16
684.03	32530.48
684.37	32713.98
684.71	32916.05
685.05	33269.12
685.39	33907.26
685.73	33696.73
686.07	33632.56
686.41	32289.91
686.75	29686.54
687.09	26455.39
687.43	24420.25
687.77	25098.54
688.11	26969.29
688.45	28536.94
688.79	29369.51
689.13	29118.29
689.47	28981.49
689.80	29349.30
690.14	29478.19
690.48	30193.34
690.82	30600.48
691.16	30860.70
691.50	31494.48
691.84	31996.37
692.18	32416.89
692.52	33021.18
692.85	33464.63
693.19	33731.68
693.53	34020.31
693.87	34475.78
694.21	34561.79
694.55	34656.55
694.88	35138.77
695.22	35569.94
695.56	35569.39
695.90	35944.04
696.24	36248.77
696.58	36495.35
696.91	37066.87
697.25	37339.11
697.59	37374.88
697.93	37043.39
698.27	36689.77
698.60	36769.23
698.94	36676.39
699.28	36680.49
699.62	36970.20
699.95	37156.16
700.29	37141.69
700.63	37120.39
700.97	36881.73
701.30	37166.26
701.64	37001.61
701.98	37008.71
702.32	36773.05
702.65	36998.88
702.99	37323.55
703.33	37609.44
703.66	37964.15
704.00	37846.74
704.34	37744.61
704.68	38429.45
705.01	38323.78
705.35	38041.16
705.69	38026.68
706.02	37989.82
706.36	38074.20
706.70	38065.19
707.03	37723.31
707.37	38147.10
707.71	38280.63
708.04	38550.96
708.38	38542.23
708.72	38081.84
709.05	38070.65
709.39	38161.85
709.72	38042.79
710.06	38426.99
710.40	38688.59
710.73	38935.98
711.07	38826.48
711.40	38638.62
711.74	38483.24
712.08	38346.17
712.41	37689.18
712.75	37432.50
713.08	37266.20
713.42	36884.74
713.75	36932.52
714.09	37008.43
714.43	36602.39
714.76	36003.29
715.10	35683.81
715.43	36102.41
715.77	36221.74
716.10	35843.82
716.44	35371.97
716.77	34111.24
717.11	32967.65
717.44	32050.16
717.78	31467.18
718.11	30761.86
718.45	29987.72
718.78	29124.57
719.12	28803.72
719.45	28796.90
719.79	28834.31
720.12	29111.19
720.46	28832.67
720.79	30001.38
721.12	31125.58
721.46	32683.94
721.79	33410.29
722.13	33548.19
722.46	33365.78
722.80	32865.80
723.13	32150.11
723.46	31212.96
723.80	30093.95
724.13	29322.54
724.47	29577.86
724.80	29643.39
725.13	29724.76
725.47	30178.32
725.80	30273.89
726.14	30669.29
726.47	30786.98
726.80	30983.04
727.14	31011.98
727.47	30998.06
727.80	30717.89
728.14	30798.45
728.47	31425.67
728.80	31213.23
729.14	30703.97
729.47	30627.78
729.80	31355.22
730.14	31781.47
730.47	31918.00
730.80	31722.49
731.14	31576.40
731.47	31745.15
731.80	31632.38
732.14	32181.51
732.47	32464.40
732.80	32698.42
733.13	32970.39
733.47	33178.46
733.80	33482.10
734.13	33443.60
734.46	33434.59
734.80	33270.21
735.13	33221.88
735.46	32995.51
735.79	32841.77
736.13	33288.23
736.46	33126.58
736.79	33406.74
737.12	33764.72
737.45	33828.89
737.79	34128.72
738.12	34273.44
738.45	33778.10
738.78	33331.65
739.11	33124.39
739.45	33565.93
739.78	33669.97
740.11	34015.94
740.44	33832.72
740.77	33873.13
741.10	33500.67
741.44	33420.94
741.77	33263.65
742.10	33580.13
742.43	33678.98
742.76	33564.30
743.09	33898.25
743.42	33707.11
743.75	33896.61
744.08	33381.89
744.42	32599.02
744.75	32407.33
745.08	32579.91
745.41	32782.79
745.74	32954.00
746.07	33183.37
746.40	33080.16
746.73	33040.84
747.06	33237.44
747.39	33302.98
747.72	33489.48
748.05	33223.79
748.38	33151.97
748.71	33207.68
749.04	32984.04
749.37	32831.67
749.71	32702.78
750.04	32769.96
750.37	33377.79
750.70	33274.85
751.03	32740.19
751.36	32680.12
751.69	32807.37
752.02	33272.67
752.34	33372.61
752.67	33455.89
753.00	33488.38
753.33	33837.63
753.66	34173.50
753.99	34303.20
754.32	34265.25
754.65	34541.86
754.98	34132.27
755.31	33797.49
755.64	33231.98
755.97	33329.46
756.30	33195.39
756.63	33035.92
756.96	32597.11
757.29	32312.30
757.61	32249.23
757.94	32152.29
758.27	31845.37
758.60	31542.27
758.93	30809.91
759.26	27857.02
759.59	22600.84
759.92	15831.07
760.24	10128.43
760.57	6901.38
760.90	5751.52
761.23	6821.10
761.56	10217.73
761.89	14146.28
762.22	16494.34
762.54	16135.81
762.87	14173.04
763.20	13008.15
763.53	12817.01
763.86	13290.50
764.18	14111.05
764.51	15423.12
764.84	16835.40
765.17	18184.60
765.50	19702.82
765.82	20890.10
766.15	21983.99
766.48	22911.31
766.81	24140.64
767.13	25593.06
767.46	26428.90
767.79	27214.77
768.12	27558.56
768.44	27925.28
768.77	27916.27
769.10	28053.35
769.42	27743.15
769.75	27602.80
770.08	27590.51
770.41	27961.87
770.73	27969.52
771.06	27714.75
771.39	27477.73
771.71	27238.53
772.04	27141.32
772.37	27158.80
772.69	27247.54
773.02	27442.51
773.35	27487.29
773.67	27887.60
774.00	27921.73
774.33	27876.95
774.65	27346.39
774.98	27158.25
775.30	27276.49
775.63	27587.78
775.96	27329.73
776.28	27521.97
776.61	27296.15
776.93	27237.98
777.26	26746.20
777.59	26310.94
777.91	25943.40
778.24	25921.28
778.56	25763.45
778.89	25836.63
779.22	25505.13
779.54	25544.72
779.87	25133.49
780.19	25315.62
780.52	25121.48
780.84	25069.32
781.17	25124.48
781.49	25057.03
781.82	24944.26
782.14	24771.14
782.47	24746.84
782.79	24570.16
783.12	24255.05
783.44	24029.50
783.77	23658.95
784.09	23704.83
784.42	23954.41
784.74	23998.37
785.07	23914.27
785.39	23645.57
785.72	23732.13
786.04	23614.99
786.37	23417.57
786.69	23194.20
787.01	23031.18
787.34	22604.66
787.66	22537.21
787.99	22370.10
788.31	22292.82
788.64	22039.42
788.96	22072.19
789.28	21961.87
789.61	21950.68
789.93	22056.35
790.26	21876.68
790.58	22113.15
790.90	21769.36
791.23	21719.66
791.55	21517.32
791.87	21506.40
792.20	21282.76
792.52	21244.81
792.85	21481.28
793.17	21381.89
793.49	21296.96
793.82	21284.95
794.14	21289.32
794.46	20946.90
794.78	20940.62
795.11	20867.16
795.43	20835.76
795.75	20796.17
796.08	20422.89
796.40	20332.51
796.72	20243.49
797.05	20280.35
797.37	20273.80
797.69	20514.09
798.01	20497.98
798.34	20376.47
798.66	20545.77
798.98	20601.47
799.30	20442.55
799.63	20365.27
799.95	20235.30
800.27	20305.75
800.59	20410.88
800.91	20658.27
801.24	20589.73
801.56	20805.72
801.88	20886.00
802.20	21278.12
802.53	21123.30
802.85	21216.41
803.17	20890.92
803.49	21573.85
803.81	21377.52
804.13	21516.78
804.46	21435.68
804.78	21132.58
805.10	20990.59
805.42	20852.42
805.74	21078.79
806.06	20639.16
806.38	20484.06
806.71	20010.57
807.03	19586.23
807.35	19386.35
807.67	19173.08
807.99	18981.94
808.31	18674.20
808.63	18499.98
808.95	18443.19
809.27	18336.15
809.59	18223.10
809.91	18128.62
810.24	18235.11
810.56	18276.35
810.88	18491.25
811.20	18398.68
811.52	18285.08
811.84	18072.64
812.16	18196.34
812.48	18149.37
812.80	17676.97
813.12	17618.27
813.44	17331.82
813.76	16746.65
814.08	16785.70
814.40	16554.14
814.72	16138.27
815.04	15778.92
815.36	15441.14
815.68	15257.91
816.00	14871.80
816.32	14600.38
816.64	14103.41
816.96	14117.88
817.28	14629.87
817.60	14601.20
817.92	14465.49
818.24	14110.78
818.55	14367.18
818.87	14711.52
819.19	14687.76
819.51	14733.91
819.83	14442.00
820.15	14631.23
820.47	14910.85
820.79	15775.37
821.11	15566.47
821.43	15342.02
821.75	14766.40
822.06	14445.55
822.38	13901.61
822.70	12834.21
823.02	11847.64
823.34	11619.08
823.66	12401.68
823.98	13410.37
824.29	13720.84
824.61	13990.90
824.93	13980.53
825.25	13949.40
825.57	13628.00
825.88	13470.45
826.20	13373.24
826.52	13553.46
826.84	13608.07
827.16	13561.38
827.47	13149.32
827.79	12688.12
828.11	12483.33
828.43	12584.09
828.75	12617.40
829.06	12548.31
829.38	12445.64
829.70	12636.51
830.02	12590.91
830.33	12592.00
830.65	12432.81
830.97	12595.55
831.28	12697.41
831.60	12695.77
831.92	12440.45
832.24	12128.07
832.55	12088.75
832.87	12122.61
833.19	12056.80
833.50	11912.90
833.82	11751.52
834.14	11794.93
834.45	11758.89
834.77	11854.74
835.09	11944.57
835.40	11947.58
835.72	11990.17
836.04	11803.13
836.35	11947.30
836.67	11797.39
836.99	11966.69
837.30	11968.60
837.62	12054.62
837.93	12037.96
838.25	12027.86
838.57	12003.83
838.88	11951.67
839.20	12037.14
839.51	12102.95
839.83	12175.86
840.15	12126.16
840.46	12300.65
840.78	12383.93
841.09	12346.25
841.41	12481.96
841.72	12373.83
842.04	12220.91
842.35	12184.32
842.67	12298.74
842.98	12295.73
843.30	12192.79
843.62	12063.90
843.93	11905.25
844.25	11851.19
844.56	11842.45
844.88	11870.57
845.19	11842.99
845.51	11859.38
845.82	11773.64
846.13	11657.31
846.45	11570.20
846.76	11383.16
847.08	11201.02
847.39	11168.53
847.71	11175.90
848.02	11242.26
848.34	11187.37
848.65	11127.02
848.97	11281.03
849.28	11115.01
849.59	10533.93
849.91	10037.78
850.22	9940.02
850.54	10491.33
850.85	10876.08
851.16	11013.70
851.48	11078.15
851.79	10874.17
852.10	10849.87
852.42	10952.54
852.73	10757.02
853.05	10521.92
853.36	10389.76
853.67	9794.75
853.99	8779.78
854.30	8153.92
854.61	8041.14
854.93	8884.91
855.24	9683.89
855.55	9926.91
855.87	9911.90
856.18	9947.94
856.49	10000.91
856.80	10000.91
857.12	9997.91
857.43	10085.02
857.74	10132.26
858.06	10150.01
858.37	10055.53
858.68	10082.83
858.99	10103.59
859.31	10100.31
859.62	10047.33
859.93	10006.92
860.24	10025.22
860.56	9995.73
860.87	9937.56
861.18	9726.76
861.49	9612.62
861.80	9659.04
862.12	9596.78
862.43	9462.43
862.74	9445.78
863.05	9582.58
863.36	9444.96
863.68	9466.80
863.99	9497.93
864.30	9585.86
864.61	9574.94
864.92	9567.29
865.23	9493.84
865.55	9298.60
865.86	8695.13
866.17	7993.63
866.48	7489.01
866.79	7748.42
867.10	8523.37
867.41	8774.32
867.72	8896.10
868.04	8858.42
868.35	8895.56
868.66	8701.96
868.97	8629.32
869.28	8670.01
869.59	8797.80
869.90	8614.58
870.21	8546.31
870.52	8455.38
870.83	8295.64
871.14	8071.73
871.45	7945.85
871.76	7832.52
872.07	7857.65
872.38	7818.05
872.69	7774.91
873.00	7590.86
873.31	7497.48
873.62	7469.08
873.93	7489.29
874.24	7387.98
874.55	7367.23
874.86	7362.04
875.17	7280.12
875.48	7215.68
875.79	7158.33
876.10	6998.32
876.41	6987.67
876.72	6945.07
877.03	6833.94
877.34	6789.70
877.65	6799.53
877.96	6744.37
878.27	6738.64
878.58	6726.89
878.89	6617.94
879.20	6646.89
879.51	6599.65
879.81	6623.40
880.12	6697.40
880.43	6563.33
880.74	6486.60
881.05	6495.88
881.36	6678.29
881.67	6830.39
881.98	6703.41
882.28	6668.46
882.59	6663.82
882.90	6738.09
883.21	6796.25
883.52	6750.65
883.83	6820.28
884.13	6855.51
884.44	6875.99
884.75	6924.05
885.06	6856.05
885.37	6879.54
885.68	6891.82
885.98	6704.23
886.29	6575.07
886.60	6556.78
886.91	6462.57
887.21	6534.66
887.52	6524.28
887.83	6461.75
888.14	6403.59
888.44	6453.83
888.75	6552.41
889.06	6551.32
889.37	6457.38
889.67	6374.10
889.98	6332.32
890.29	6320.30
890.60	6302.01
890.90	6367.54
891.21	6333.96
891.52	6308.02
891.82	6239.48
892.13	6254.22
892.44	6078.10
892.74	6061.17
893.05	5999.73
893.36	6076.73
893.66	6043.97
893.97	6167.39
894.28	6043.97
894.58	5986.35
894.89	5856.37
895.20	5779.64
895.50	5717.66
895.81	5652.94
896.11	5528.42
896.42	5356.67
896.73	5270.93
897.03	5379.06
897.34	5242.80
897.64	5290.86
897.95	5413.74
898.26	5309.15
898.56	4913.49
898.87	4462.93
899.17	4384.02
899.48	4825.83
899.78	5015.61
900.09	4893.28
900.39	4649.16
900.70	4577.35
901.00	4564.79
901.31	4516.45
901.62	4618.85
901.92	4539.12
902.23	4551.41
902.53	4590.18
902.84	4769.04
903.14	5089.88
903.44	5254.81
903.75	5355.03
904.05	5270.11
904.36	5236.79
904.66	5240.89
904.97	5242.80
905.27	5187.37
905.58	5151.32
905.88	4983.94
906.19	4914.85
906.49	4728.08
906.79	4581.99
907.10	4494.34
907.40	4421.15
907.71	4400.68
908.01	4473.31
908.31	4254.04
908.62	4339.51
908.92	4175.94
909.23	4313.02
909.53	4236.56
909.83	4232.20
910.14	4168.85
910.44	4175.40
910.74	4221.55
911.05	4265.78
911.35	4232.20
911.65	4144.54
911.96	4083.38
912.26	4118.33
912.56	4091.02
912.87	3784.92
913.17	3452.88
913.47	3457.79
913.78	3488.10
914.08	3699.72
914.38	3814.68
914.69	3709.55
914.99	3375.60
915.29	3166.71
915.59	3183.09
915.90	3320.71
916.20	3469.26
916.50	3438.40
916.80	3314.43
917.11	3068.13
917.41	3028.26
917.71	3030.45
918.01	3129.02
918.31	3242.89
918.62	3251.08
918.92	3269.38
919.22	3327.27
919.52	3315.52
919.82	3345.29
920.13	3408.37
920.43	3424.75
920.73	3337.37
921.03	3134.76
921.33	3118.37
921.63	3111.00
921.94	3143.22
922.24	3138.03
922.54	3080.69
922.84	2989.49
923.14	2879.99
923.44	2868.79
923.74	2847.77
924.05	2831.93
924.35	2824.83
924.65	2748.65
924.95	2731.99
925.25	2736.09
925.55	2654.44
925.85	2624.13
926.15	2641.88
926.45	2721.61
926.75	2709.05
927.05	2607.20
927.35	2465.21
927.65	2363.08
927.95	2248.12
928.25	2148.46
928.56	2138.35
928.86	2054.80
929.16	1931.37
929.46	1801.67
929.76	1697.90
930.06	1657.76
930.36	1516.04
930.66	1463.34
930.96	1333.09
931.26	1147.41
931.55	1063.58
931.85	933.33
932.15	903.84
932.45	850.59
932.75	808.81
933.05	781.78
933.35	681.56
933.65	558.69
933.95	460.66
934.25	502.71
934.55	568.52
934.85	618.49
935.15	625.86
935.45	531.38
935.75	502.16
936.04	521.28
936.34	511.72
936.64	427.62
936.94	408.50
937.24	353.07
937.54	379.83
937.84	381.74
938.14	391.57
938.43	460.66
938.73	544.76
939.03	614.39
939.33	650.71
939.63	623.67
939.92	510.63
940.22	470.76
940.52	433.08
940.82	412.32
941.12	379.83
941.42	352.52
941.71	393.76
942.01	354.16
942.31	286.17
942.61	277.16
942.90	260.23
943.20	276.34
943.50	250.13
943.80	198.79
944.09	187.87
944.39	228.01
944.69	273.88
944.99	256.95
945.28	255.31
945.58	227.73
945.88	205.07
946.17	230.74
946.47	227.73
946.77	255.31
947.06	278.52
947.36	276.89
947.66	221.45
947.96	264.05
948.25	299.00
948.55	314.84
948.84	323.58
949.14	299.55
949.44	234.56
949.73	217.63
950.03	277.70
950.33	314.57
950.62	369.73
950.92	392.94
951.21	359.08
951.51	318.66
951.81	287.81
952.10	262.96
952.40	308.29
952.69	333.96
952.99	383.65
953.29	384.47
953.58	405.22
953.88	389.93
954.17	378.19
954.47	352.80
954.76	372.18
955.06	366.72
955.35	391.03
955.65	405.77
955.94	396.76
956.24	392.39
956.53	412.05
956.83	401.67
957.12	481.96
957.42	502.43
957.71	516.09
958.01	488.78
958.30	402.22
958.60	395.39
958.89	392.12
959.19	341.60
959.48	374.37
959.78	414.78
960.07	403.86
960.37	400.58
960.66	445.91
960.95	458.20
961.25	437.45
961.54	426.52
961.84	422.70
962.13	409.32
962.42	408.50
962.72	438.54
963.01	489.60
963.31	469.67
963.60	447.28
963.89	424.07
964.19	413.14
964.48	432.26
964.77	470.49
965.07	467.48
965.36	469.12
965.65	420.79
965.95	447.00
966.24	394.58
966.53	437.99
966.83	479.22
967.12	488.78
967.41	559.78
967.71	540.66
968.00	529.47
968.29	532.74
968.58	581.90
968.88	565.79
969.17	575.62
969.46	536.57
969.76	555.41
970.05	543.67
970.34	518.00
970.63	557.87
970.92	549.40
971.22	534.66
971.51	521.55
971.80	513.90
972.09	482.23
972.39	450.83
972.68	435.53
972.97	392.39
973.26	389.11
973.55	368.63
973.84	356.89
974.14	331.22
974.43	336.41
974.72	363.99
975.01	355.80
975.30	331.22
975.59	320.03
975.89	315.66
976.18	288.08
976.47	319.76
976.76	339.14
977.05	347.88
977.34	361.26
977.63	342.15
977.92	330.41
978.21	328.22
978.51	331.77
978.80	303.92
979.09	290.54
979.38	282.62
979.67	282.89
979.96	283.44
980.25	297.37
980.54	253.40
980.83	281.25
981.12	275.25
981.41	296.00
981.70	309.65
981.99	299.00
982.28	304.74
982.57	250.94
982.86	254.49
983.15	236.20
983.44	235.38
983.73	273.61
984.02	244.39
984.31	240.30
984.60	246.30
984.89	204.52
985.18	201.52
985.47	203.70
985.76	185.96
986.05	169.30
986.34	197.15
986.63	188.41
986.92	145.82
987.21	140.63
987.49	142.54
987.78	105.68
988.07	130.25
988.36	103.49
988.65	102.67
988.94	105.95
989.23	100.21
989.52	100.21
989.80	75.09
990.09	98.03
990.38	79.46
990.67	82.74
990.96	69.08
991.25	47.24
991.54	57.34
991.82	90.93
992.11	61.44
992.40	37.96
992.69	50.79
992.98	57.62
993.26	58.71
993.55	80.01
993.84	84.65
994.13	59.80
994.42	47.24
994.70	91.20
994.99	83.56
995.28	56.52
995.57	40.14
995.85	67.45
996.14	44.51
996.43	43.42
996.72	49.42
997.00	29.22
997.29	45.33
997.58	55.16
997.86	10.65
998.15	25.12
998.44	15.29
998.73	4.64
999.01	10.38
999.30	9.28
999.59	6.83
999.87	6.01
1000.16	0.55
1000.45	3.55
1000.73	0.00
1001.02	0.00
1001.30	10.65
1001.59	0.55
1001.88	2.46
1002.16	5.19
1002.45	5.19
1002.74	0.00
1003.02	0.00
1003.31	0.82
1003.59	0.82
1003.88	0.00
1004.17	2.46
1004.45	0.00
1004.74	0.00
1005.02	0.00
1005.31	0.00
1005.59	0.00
1005.88	0.00
1006.16	0.00
1006.45	0.00
1006.73	0.00
1007.02	0.00
1007.31	0.00
1007.59	0.00
1007.88	0.00
1008.16	0.00
1008.45	0.00
1008.73	0.00
1009.02	0.00
1009.30	0.00
1009.58	0.00
1009.87	0.00
1010.15	0.00
1010.44	0.00
1010.72	0.00
1011.01	0.00
1011.29	0.00
1011.58	0.00
1011.86	0.00
1012.14	0.00
1012.43	0.00
1012.71	0.00
1013.00	0.00
1013.28	0.00
1013.56	0.00
1013.85	0.00
1014.13	0.00
1014.42	0.00
1014.70	0.00
1014.98	0.00
1015.27	0.00
1015.55	0.00
1015.83	0.00
1016.12	0.00
1016.40	0.00
1016.68	0.00
1016.97	0.00
1017.25	0.00
1017.53	0.00
1017.82	0.00
1018.10	0.00
1018.38	0.00
1018.67	0.00
1018.95	0.00
1019.23	0.00
1019.51	0.00
1019.80	0.00
1020.08	0.00
1020.36	0.00
1020.64	0.00
1020.93	0.00
1021.21	0.00
1021.49	0.00
1021.77	0.00
1022.06	0.00
1022.34	0.00
1022.62	0.00
1022.90	0.00
1023.18	0.00
1023.47	0.00
1023.75	0.00
1024.03	0.00
1024.31	0.00
1024.59	0.00
1024.87	0.00
1025.16	0.00
1025.44	0.00
>>>>>End Processed Spectral Data<<<<<
