SpectraSuite Data File
++++++++++++++++++++++++++++++++++++
Date: Mon Apr 24 13:46:17 ART 2023
User: guille
Dark Spectrum Present: No
Reference Spectrum Present: No
Number of Sampled Component Spectra: 1
Spectrometers: USB2+H13674
Integration Time (usec): 3000 (USB2+H13674)
Spectra Averaged: 10 (USB2+H13674)
Boxcar Smoothing: 0 (USB2+H13674)
Correct for Electrical Dark: No (USB2+H13674)
Strobe/Lamp Enabled: No (USB2+H13674)
Correct for Detector Non-linearity: No (USB2+H13674)
Correct for Stray Light: No (USB2+H13674)
Number of Pixels in Processed Spectrum: 2048
>>>>>Begin Processed Spectral Data<<<<<
339.87	0.00
340.25	0.00
340.63	0.00
341.02	0.00
341.40	0.00
341.78	0.00
342.16	0.00
342.55	0.00
342.93	0.00
343.31	0.00
343.69	0.00
344.08	0.00
344.46	0.00
344.84	0.00
345.22	0.00
345.60	0.00
345.99	0.00
346.37	0.00
346.75	0.00
347.13	0.00
347.51	0.00
347.90	0.00
348.28	0.00
348.66	0.00
349.04	0.00
349.42	0.00
349.80	0.00
350.19	0.00
350.57	0.00
350.95	0.00
351.33	0.00
351.71	0.00
352.09	0.00
352.47	0.00
352.86	0.00
353.24	0.00
353.62	0.00
354.00	0.00
354.38	0.00
354.76	0.00
355.14	0.00
355.52	0.00
355.90	0.00
356.28	0.00
356.67	0.00
357.05	0.00
357.43	0.00
357.81	0.00
358.19	0.00
358.57	0.00
358.95	0.00
359.33	0.00
359.71	0.00
360.09	0.00
360.47	0.00
360.85	0.00
361.23	0.00
361.61	0.00
361.99	0.00
362.37	0.00
362.75	0.00
363.13	0.00
363.51	0.00
363.89	0.00
364.27	0.00
364.65	0.00
365.03	0.00
365.41	0.00
365.79	0.00
366.17	0.00
366.55	0.00
366.93	0.00
367.31	0.00
367.69	0.00
368.07	0.00
368.45	0.00
368.83	0.00
369.21	0.00
369.59	0.00
369.97	0.00
370.35	0.00
370.73	0.00
371.11	0.00
371.49	0.00
371.87	0.00
372.25	0.00
372.62	0.00
373.00	0.00
373.38	0.00
373.76	0.00
374.14	0.00
374.52	0.00
374.90	0.00
375.28	0.00
375.66	0.00
376.03	0.00
376.41	0.00
376.79	0.00
377.17	0.00
377.55	0.00
377.93	0.00
378.31	0.00
378.68	0.00
379.06	0.00
379.44	0.00
379.82	0.00
380.20	0.00
380.58	0.00
380.95	0.00
381.33	0.00
381.71	0.00
382.09	0.00
382.47	0.00
382.85	0.00
383.22	0.00
383.60	0.00
383.98	0.00
384.36	0.00
384.73	0.55
385.11	2.46
385.49	0.00
385.87	0.00
386.25	0.00
386.62	0.00
387.00	0.00
387.38	0.00
387.76	11.47
388.13	17.48
388.51	27.03
388.89	46.15
389.26	97.21
389.64	94.75
390.02	174.76
390.40	208.07
390.77	200.97
391.15	280.16
391.53	289.17
391.90	316.48
392.28	285.62
392.66	268.69
393.04	162.75
393.41	52.97
393.79	61.71
394.17	164.66
394.54	313.20
394.92	441.00
395.30	536.29
395.67	604.29
396.05	581.08
396.42	461.20
396.80	311.02
397.18	257.77
397.55	373.28
397.93	646.07
398.31	881.17
398.68	975.65
399.06	1048.56
399.44	1127.20
399.81	1209.94
400.19	1294.86
400.56	1275.20
400.94	1354.12
401.32	1393.16
401.69	1501.84
402.07	1594.68
402.44	1634.55
402.82	1705.55
403.19	1610.25
403.57	1619.81
403.95	1761.25
404.32	1802.21
404.70	1721.66
405.07	1836.07
405.45	1838.26
405.82	1918.26
406.20	1883.31
406.57	1854.91
406.95	1927.00
407.32	1989.26
407.70	2030.77
408.07	2135.89
408.45	2138.90
408.82	2375.37
409.20	2445.00
409.57	2425.61
409.95	2250.58
410.32	2129.61
410.70	2144.09
411.07	2375.92
411.45	2643.24
411.82	2697.31
412.20	2752.47
412.57	2777.59
412.95	2711.24
413.32	2623.86
413.70	2764.21
414.07	2847.77
414.45	2878.90
414.82	2872.62
415.19	2883.27
415.57	2915.76
415.94	2978.29
416.32	2999.05
416.69	3129.84
417.07	3137.22
417.44	3079.60
417.81	2969.83
418.19	3034.82
418.56	3038.64
418.94	3038.37
419.31	3230.33
419.68	3226.78
420.06	3231.42
420.43	3190.74
420.80	3367.13
421.18	3666.68
421.55	3655.76
421.93	3725.94
422.30	3682.25
422.67	3422.57
423.05	3455.88
423.42	3541.62
423.79	3804.31
424.17	3861.38
424.54	4000.09
424.91	3972.79
425.29	4011.83
425.66	3982.89
426.03	4022.76
426.40	4281.07
426.78	4388.93
427.15	4218.82
427.52	4125.97
427.90	4208.71
428.27	4532.29
428.64	4595.10
429.02	4474.68
429.39	4409.69
429.76	4242.30
430.13	3905.07
430.51	3536.98
430.88	3422.29
431.25	3700.82
431.62	4500.34
432.00	5186.55
432.37	5544.26
432.74	5349.29
433.11	5380.70
433.48	5835.62
433.86	5566.11
434.23	5043.46
434.60	5107.36
434.97	5567.20
435.35	5786.19
435.72	5844.63
436.09	6062.81
436.46	6303.65
436.83	6388.02
437.21	6237.57
437.58	5945.12
437.95	6001.37
438.32	5532.79
438.69	5335.37
439.06	5409.91
439.44	5836.44
439.81	6097.21
440.18	6165.48
440.55	6046.15
440.92	6036.59
441.29	6260.23
441.66	6439.36
442.03	6635.69
442.41	6674.47
442.78	6845.13
443.15	6686.75
443.52	6717.34
443.89	6710.51
444.26	6888.27
444.63	7109.18
445.00	7246.53
445.37	7135.67
445.74	6873.80
446.12	6724.44
446.49	6919.68
446.86	7146.86
447.23	7564.38
447.60	7937.65
447.97	8020.66
448.34	7995.54
448.71	8055.07
449.08	8029.40
449.45	8228.19
449.82	8417.15
450.19	8696.49
450.56	9226.78
450.93	9228.15
451.30	9431.03
451.67	9397.99
452.04	9438.13
452.41	9437.59
452.78	9117.83
453.15	8915.22
453.52	8925.59
453.89	9484.55
454.26	10111.23
454.63	10497.89
455.00	10313.02
455.37	10283.53
455.74	10473.59
456.11	11038.01
456.48	11129.75
456.85	11512.86
457.22	11517.78
457.59	11898.70
457.96	11889.96
458.33	11755.89
458.70	11809.13
459.07	11926.00
459.43	11978.16
459.80	12124.25
460.17	12193.06
460.54	12611.39
460.91	12673.65
461.28	13080.24
461.65	13269.20
462.02	13499.94
462.39	13686.17
462.76	13820.79
463.12	13819.69
463.49	13724.94
463.86	13732.59
464.23	13578.58
464.60	13136.76
464.97	13073.41
465.34	13262.37
465.70	13631.55
466.07	13872.67
466.44	13892.87
466.81	13583.77
467.18	13353.85
467.55	13723.85
467.91	13889.60
468.28	13757.71
468.65	14037.32
469.02	14004.83
469.39	14224.37
469.75	14404.05
470.12	14083.20
470.49	13536.25
470.86	13746.24
471.23	14029.68
471.59	14351.62
471.96	14929.42
472.33	15428.03
472.70	15371.51
473.06	15166.44
473.43	14697.32
473.80	15277.57
474.17	15491.93
474.53	15987.54
474.90	16134.99
475.27	16405.59
475.64	16265.51
476.00	16128.71
476.37	16104.41
476.74	16377.74
477.11	16405.87
477.47	16758.12
477.84	17215.23
478.21	17483.65
478.57	17369.23
478.94	17207.58
479.31	17431.76
479.67	18009.29
480.04	18430.08
480.41	17960.96
480.77	18488.52
481.14	18519.10
481.51	18989.31
481.87	19151.78
482.24	19615.44
482.61	19688.90
482.97	19743.24
483.34	19917.18
483.71	19739.96
484.07	19895.61
484.44	19891.24
484.80	19999.37
485.17	19918.27
485.54	19481.10
485.90	18223.65
486.27	16410.51
486.63	16273.16
487.00	17380.16
487.37	18753.11
487.73	19494.20
488.10	20616.49
488.46	20902.12
488.83	21044.11
489.19	20909.21
489.56	21383.25
489.93	22404.23
490.29	22766.86
490.66	22629.51
491.02	22289.00
491.39	22446.83
491.75	22069.46
492.12	21353.76
492.48	20921.78
492.85	21806.50
493.21	22834.31
493.58	22774.50
493.94	22090.48
494.31	22659.82
494.67	23438.87
495.04	23671.79
495.40	23553.83
495.77	22911.31
496.13	22988.04
496.50	23163.07
496.86	23562.84
497.23	23727.22
497.59	23512.32
497.96	23513.96
498.32	22573.53
498.69	22081.75
499.05	22612.03
499.41	23304.79
499.78	23386.16
500.14	23036.64
500.51	22366.82
500.87	21979.07
501.24	21664.78
501.60	21608.80
501.96	21509.68
502.33	21696.73
502.69	21945.76
503.06	22455.84
503.42	22957.46
503.78	22717.71
504.15	22021.13
504.51	21936.48
504.88	22462.39
505.24	22575.44
505.60	22604.93
505.97	23261.38
506.33	23571.57
506.69	23458.80
507.06	23180.82
507.42	22873.35
507.78	22582.00
508.15	22157.38
508.51	22264.97
508.87	22570.25
509.24	23518.05
509.60	23309.71
509.96	22802.90
510.33	22984.22
510.69	22788.70
511.05	22726.17
511.41	23273.94
511.78	23623.46
512.14	23888.60
512.50	23405.28
512.87	22933.97
513.23	22721.26
513.59	23086.07
513.95	22733.00
514.32	22587.18
514.68	22511.00
515.04	22895.47
515.40	23208.13
515.77	23362.41
516.13	23561.20
516.49	22949.26
516.85	20994.68
517.22	19345.66
517.58	19997.46
517.94	21579.58
518.30	21817.97
518.66	21148.42
519.03	21653.31
519.39	23244.17
519.75	23776.10
520.11	24296.83
520.47	24739.74
520.83	24406.60
521.20	24495.07
521.56	25070.69
521.92	25459.53
522.28	25353.85
522.64	25126.12
523.00	24540.13
523.37	24410.97
523.73	25866.12
524.09	26430.81
524.45	27040.01
524.81	27157.43
525.17	26956.18
525.53	27030.46
525.89	27308.16
526.26	26531.84
526.62	25433.31
526.98	24352.81
527.34	24615.77
527.70	26139.18
528.06	27239.08
528.42	27521.97
528.78	28119.70
529.14	29225.88
529.50	29602.98
529.86	28877.18
530.22	28541.86
530.59	29220.15
530.95	30114.15
531.31	30271.44
531.67	30033.33
532.03	29686.26
532.39	28855.33
532.75	27720.76
533.11	27327.55
533.47	28006.93
533.83	28988.86
534.19	29079.52
534.55	28656.00
534.91	29069.96
535.27	29448.70
535.63	30085.21
535.99	30924.87
536.35	31084.34
536.71	30395.95
537.07	29162.26
537.43	29733.23
537.79	30038.79
538.15	30486.06
538.51	30536.85
538.87	30721.44
539.22	30281.54
539.58	29824.16
539.94	29718.21
540.30	29430.95
540.66	29251.00
541.02	28926.06
541.38	29246.09
541.74	29836.17
542.10	29895.16
542.46	30233.21
542.82	30058.99
543.18	29731.86
543.53	29817.33
543.89	30173.95
544.25	30944.53
544.61	30850.87
544.97	31007.07
545.33	30536.31
545.69	31087.62
546.05	30460.67
546.40	30633.52
546.76	30883.64
547.12	30755.85
547.48	30439.92
547.84	29986.63
548.20	29749.07
548.55	30092.58
548.91	30557.33
549.27	30898.39
549.63	30654.54
549.99	30509.00
550.34	30167.67
550.70	29836.99
551.06	29840.00
551.42	29744.15
551.78	29749.89
552.13	30068.55
552.49	29663.05
552.85	29916.45
553.21	29847.37
553.57	29494.30
553.92	29973.25
554.28	29815.97
554.64	30037.15
555.00	30192.52
555.35	30055.44
555.71	29708.93
556.07	29474.64
556.42	29309.44
556.78	28720.99
557.14	28533.12
557.50	28266.06
557.85	28768.23
558.21	28965.65
558.57	28597.02
558.92	28138.54
559.28	27637.75
559.64	27782.47
559.99	28010.75
560.35	28260.33
560.71	29128.94
561.06	29535.26
561.42	29117.75
561.78	28890.29
562.13	28127.62
562.49	27986.72
562.85	28279.99
563.20	28475.50
563.56	28506.09
563.92	28268.25
564.27	28508.00
564.63	28461.85
564.98	28576.81
565.34	28774.51
565.70	28148.65
566.05	27034.01
566.41	27215.32
566.76	27812.51
567.12	28374.47
567.48	28620.77
567.83	28576.54
568.19	27745.33
568.54	27322.09
568.90	26790.43
569.25	27095.17
569.61	27181.46
569.97	27155.79
570.32	26997.69
570.68	26324.32
571.03	25944.49
571.39	25752.80
571.74	26469.86
572.10	27008.61
572.45	27405.64
572.81	27308.16
573.16	27187.47
573.52	26767.50
573.87	26810.91
574.23	26695.68
574.58	26850.78
574.94	26880.00
575.29	26596.29
575.65	25998.28
576.00	25668.42
576.36	25830.07
576.71	25796.76
577.07	25867.21
577.42	25733.96
577.78	25581.04
578.13	25476.46
578.48	25016.07
578.84	24857.15
579.19	24336.70
579.55	24490.70
579.90	24630.24
580.26	24954.09
580.61	24791.62
580.96	24638.16
581.32	24648.26
581.67	24660.82
582.03	24556.78
582.38	24343.52
582.73	24244.67
583.09	23964.51
583.44	24092.85
583.79	23926.01
584.15	24026.77
584.50	24146.37
584.86	23776.10
585.21	23537.99
585.56	22917.04
585.92	22511.55
586.27	22408.05
586.62	22899.02
586.98	22940.80
587.33	22955.00
587.68	22815.74
588.04	22980.39
588.39	22554.14
588.74	21679.80
589.09	20830.85
589.45	19753.89
589.80	20123.34
590.15	20760.40
590.51	21508.59
590.86	22053.35
591.21	21850.19
591.56	21863.57
591.92	21484.28
592.27	21751.07
592.62	21979.89
592.97	21971.15
593.33	22171.58
593.68	22363.00
594.03	22277.80
594.38	22540.49
594.74	22102.77
595.09	21739.05
595.44	21696.73
595.79	21814.14
596.14	21905.89
596.50	21916.00
596.85	22039.97
597.20	22076.83
597.55	21891.42
597.90	21934.84
598.26	21803.49
598.61	21959.69
598.96	21902.62
599.31	22240.39
599.66	22207.90
600.01	22258.14
600.37	22205.17
600.72	21840.90
601.07	22064.27
601.42	22301.01
601.77	22508.27
602.12	22255.14
602.47	22100.59
602.83	22177.04
603.18	22336.24
603.53	22618.59
603.88	22738.19
604.23	22812.73
604.58	23090.98
604.93	23294.96
605.28	23319.81
605.63	23210.59
605.98	23157.61
606.33	23084.16
606.69	23203.21
607.04	23456.89
607.39	23393.54
607.74	23703.74
608.09	23617.18
608.44	23464.53
608.79	23395.45
609.14	23767.63
609.49	23554.92
609.84	23512.59
610.19	23589.87
610.54	23251.54
610.89	23314.08
611.24	23675.88
611.59	23897.88
611.94	23773.09
612.29	23723.40
612.64	24063.09
612.99	23961.51
613.34	23809.41
613.69	23473.54
614.04	23255.91
614.39	23350.67
614.74	23598.61
615.09	23872.76
615.44	23666.60
615.79	23460.16
616.14	22834.58
616.48	22586.64
616.83	22396.04
617.18	22505.81
617.53	22906.39
617.88	23395.45
618.23	23699.64
618.58	23828.25
618.93	23853.10
619.28	23671.79
619.63	24065.82
619.98	24263.51
620.32	24274.98
620.67	24444.01
621.02	24377.65
621.37	24240.85
621.72	23963.69
622.07	23929.83
622.42	23720.39
622.76	23963.42
623.11	24100.50
623.46	24213.00
623.81	24200.98
624.16	24059.26
624.51	23743.88
624.85	23465.08
625.20	23373.06
625.55	23368.96
625.90	23210.86
626.25	23350.12
626.59	23571.30
626.94	23676.98
627.29	23502.76
627.64	23229.15
627.99	23015.35
628.33	22789.52
628.68	22959.37
629.03	23243.90
629.38	23144.78
629.72	22785.70
630.07	22364.09
630.42	22404.51
630.77	22424.44
631.11	22631.42
631.46	22094.03
631.81	21900.98
632.16	21935.93
632.50	22031.23
632.85	22278.08
633.20	22107.69
633.54	21953.13
633.89	22041.60
634.24	22049.80
634.58	22479.60
634.93	22516.19
635.28	22548.68
635.63	22408.05
635.97	22049.52
636.32	21890.33
636.67	22060.45
637.01	22283.54
637.36	22590.73
637.70	22796.90
638.05	22571.89
638.40	22408.33
638.74	22553.32
639.09	22417.61
639.44	22249.41
639.78	22072.19
640.13	22047.89
640.47	22229.75
640.82	22125.71
641.17	21932.38
641.51	21913.27
641.86	22155.75
642.20	21945.49
642.55	22000.65
642.90	22029.04
643.24	21766.08
643.59	21531.80
643.93	21450.70
644.28	21433.77
644.62	21573.30
644.97	21657.95
645.31	21360.59
645.66	21270.48
646.00	20741.55
646.35	20576.08
646.70	20470.68
647.04	20612.94
647.39	20576.90
647.73	20652.54
648.08	20758.21
648.42	20886.82
648.77	20502.90
649.11	20352.99
649.46	20050.16
649.80	19953.22
650.14	20345.61
650.49	20609.67
650.83	20933.52
651.18	21231.97
651.52	20994.14
651.87	21160.98
652.21	21098.72
652.56	20787.16
652.90	20702.23
653.25	20695.95
653.59	20733.91
653.93	20949.63
654.28	20843.68
654.62	20831.94
654.97	20635.06
655.31	20306.02
655.65	19477.28
656.00	18078.92
656.34	17134.40
656.69	17015.62
657.03	18040.15
657.37	19004.60
657.72	19638.38
658.06	20448.56
658.40	21215.86
658.75	21404.00
659.09	21714.75
659.43	21622.73
659.78	21465.99
660.12	21602.79
660.46	21927.74
660.81	21779.74
661.15	21752.98
661.49	22311.12
661.84	22433.18
662.18	22699.69
662.52	22772.59
662.87	22979.30
663.21	22785.43
663.55	22813.55
663.89	22839.49
664.24	22629.51
664.58	22698.32
664.92	22516.73
665.26	22694.22
665.61	22898.20
665.95	23149.69
666.29	23371.42
666.63	23420.84
666.98	23701.01
667.32	23963.96
667.66	24112.24
668.00	24500.26
668.35	24620.95
668.69	24834.76
669.03	24747.38
669.37	24996.41
669.71	25118.75
670.06	25022.08
670.40	25288.86
670.74	25361.77
671.08	25305.52
671.42	25334.19
671.77	25152.61
672.11	25182.10
672.45	25315.62
672.79	25506.50
673.13	25759.35
673.47	26173.04
673.81	26487.06
674.16	26780.88
674.50	27017.08
674.84	27215.05
675.18	27800.77
675.52	28053.90
675.86	28109.87
676.20	27925.01
676.54	27896.06
676.88	27806.23
677.23	27678.43
677.57	27743.70
677.91	27779.19
678.25	28080.11
678.59	28582.54
678.93	28956.09
679.27	29035.55
679.61	28928.79
679.95	29099.72
680.29	29495.39
680.63	29582.23
680.97	29442.42
681.31	29553.83
681.65	29628.10
681.99	29697.73
682.33	29784.02
682.67	30286.73
683.01	30701.24
683.35	30744.93
683.69	30897.02
684.03	30515.83
684.37	30347.07
684.71	30574.26
685.05	31239.72
685.39	31916.36
685.73	31921.01
686.07	32031.05
686.41	30650.17
686.75	27824.52
687.09	24586.27
687.43	23224.51
687.77	24153.20
688.11	25792.66
688.45	26979.12
688.79	27715.30
689.13	27831.62
689.47	28105.78
689.80	28606.85
690.14	28857.52
690.48	29245.27
690.82	29922.46
691.16	30158.66
691.50	30859.34
691.84	31604.80
692.18	32153.93
692.52	32544.13
692.85	32581.82
693.19	32622.78
693.53	32449.11
693.87	32273.80
694.21	32264.25
694.55	32518.19
694.88	32889.56
695.22	32982.13
695.56	32860.07
695.90	33358.13
696.24	33626.01
696.58	34441.37
696.91	35303.98
697.25	35495.67
697.59	35280.77
697.93	35007.16
698.27	35054.94
698.60	34818.75
698.94	34371.74
699.28	34038.88
699.62	33578.50
699.95	33588.87
700.29	33903.71
700.63	34248.86
700.97	34338.97
701.30	34737.10
701.64	34704.88
701.98	34887.83
702.32	34576.54
702.65	34468.13
702.99	34572.72
703.33	34637.43
703.66	35004.15
704.00	35335.38
704.34	35775.56
704.68	36530.30
705.01	36839.41
705.35	36286.46
705.69	36004.93
706.02	35870.58
706.36	35548.37
706.70	35679.71
707.03	35620.18
707.37	36169.31
707.71	36150.20
708.04	36094.49
708.38	35969.43
708.72	35668.52
709.05	35909.63
709.39	36205.90
709.72	36117.98
710.06	36232.12
710.40	36121.53
710.73	35773.92
711.07	35708.93
711.40	35669.34
711.74	35705.65
712.08	35575.95
712.41	35258.10
712.75	34787.34
713.08	34390.58
713.42	34051.44
713.75	34502.27
714.09	34730.82
714.43	34717.71
714.76	34443.28
715.10	34218.01
715.43	34903.12
715.77	34986.13
716.10	34326.41
716.44	33381.07
716.77	32072.28
717.11	31010.34
717.44	30389.94
717.78	29598.06
718.11	29081.16
718.45	28760.85
718.78	28089.94
719.12	27726.77
719.45	28162.85
719.79	28146.46
720.12	28160.39
720.46	27804.59
720.79	28615.86
721.12	29678.34
721.46	31307.43
721.79	31681.53
722.13	31812.33
722.46	31569.30
722.80	31379.52
723.13	30592.83
723.46	29773.37
723.80	29007.16
724.13	29241.44
724.47	29671.52
724.80	29889.69
725.13	29855.29
725.47	30013.66
725.80	30234.03
726.14	30140.91
726.47	29962.88
726.80	30250.41
727.14	29852.83
727.47	29523.79
727.80	29018.90
728.14	29166.90
728.47	29900.07
728.80	29451.70
729.14	29457.98
729.47	29708.11
729.80	30537.94
730.14	30827.94
730.47	30712.43
730.80	30486.88
731.14	30549.96
731.47	31125.85
731.80	31180.19
732.14	31655.32
732.47	32214.00
732.80	32358.45
733.13	32732.27
733.47	33037.56
733.80	33534.53
734.13	33938.12
734.46	34053.90
734.80	33983.45
735.13	33789.30
735.46	33536.99
735.79	33152.52
736.13	33347.76
736.46	32667.83
736.79	32597.11
737.12	32879.73
737.45	32689.13
737.79	32386.03
738.12	32249.77
738.45	31876.22
738.78	31542.00
739.11	31696.00
739.45	31911.18
739.78	32388.76
740.11	32688.04
740.44	32529.94
740.77	32453.75
741.10	32393.95
741.44	32294.56
741.77	32620.59
742.10	32728.18
742.43	33374.24
742.76	33652.22
743.09	34390.31
743.42	34572.17
743.75	34852.06
744.08	34358.64
744.42	33835.17
744.75	33699.74
745.08	34012.39
745.41	34545.96
745.74	34693.14
746.07	34352.08
746.40	33855.93
746.73	33543.27
747.06	33579.86
747.39	33173.27
747.72	33212.32
748.05	32857.34
748.38	32932.43
748.71	32702.24
749.04	32257.42
749.37	31982.72
749.71	31995.55
750.04	31841.00
750.37	32193.52
750.70	32352.44
751.03	32277.63
751.36	32801.91
751.69	32926.42
752.02	33268.02
752.34	33138.32
752.67	32756.30
753.00	32562.16
753.33	32749.48
753.66	32958.92
753.99	32936.25
754.32	32886.56
754.65	33204.95
754.98	33386.81
755.31	33281.95
755.64	33298.33
755.97	33173.82
756.30	32740.19
756.63	32352.44
756.96	31959.51
757.29	31881.41
757.61	32103.96
757.94	32091.67
758.27	31783.93
758.60	31678.25
758.93	30959.83
759.26	27641.30
759.59	22011.57
759.92	15128.75
760.24	9608.52
760.57	6424.07
760.90	5391.07
761.23	6443.73
761.56	9687.44
761.89	13266.20
762.22	14755.21
762.54	14318.58
762.87	12863.43
763.20	12115.51
763.53	12047.79
763.86	12462.85
764.18	13254.73
764.51	14467.67
764.84	15909.44
765.17	16995.14
765.50	18294.64
765.82	19371.60
766.15	20519.01
766.48	21658.77
766.81	23073.51
767.13	24359.09
767.46	25199.03
767.79	25825.98
768.12	26091.12
768.44	26938.16
768.77	26927.79
769.10	27214.23
769.42	27197.84
769.75	27339.29
770.08	27450.97
770.41	27945.49
770.73	28157.66
771.06	27829.44
771.39	27656.32
771.71	27419.02
772.04	27352.40
772.37	27216.41
772.69	26888.74
773.02	26825.93
773.35	26904.85
773.67	27194.84
774.00	27153.34
774.33	27216.69
774.65	26623.87
774.98	26501.53
775.30	26201.44
775.63	26089.21
775.96	25773.82
776.28	25663.78
776.61	25209.68
776.93	24987.13
777.26	24380.66
777.59	23815.42
777.91	23763.54
778.24	23984.44
778.56	24134.90
778.89	24533.03
779.22	24405.78
779.54	24147.46
779.87	23473.27
780.19	23688.44
780.52	23778.28
780.84	23657.59
781.17	23516.14
781.49	23379.61
781.82	23341.11
782.14	23149.15
782.47	23218.23
782.79	22888.92
783.12	22833.76
783.44	22628.96
783.77	22685.76
784.09	22456.66
784.42	22458.03
784.74	22454.20
785.07	22579.81
785.39	22409.69
785.72	22696.14
786.04	22419.80
786.37	21897.43
786.69	21546.82
787.01	21240.44
787.34	21270.75
787.66	21449.61
787.99	21437.32
788.31	21556.65
788.64	21334.65
788.96	21263.38
789.28	21160.16
789.61	20953.18
789.93	20740.46
790.26	20657.18
790.58	21019.26
790.90	21011.61
791.23	21210.40
791.55	21237.71
791.87	21332.46
792.20	21034.55
792.52	21219.69
792.85	21230.34
793.17	20882.45
793.49	20586.73
793.82	20564.06
794.14	20677.11
794.46	20396.95
794.78	20482.15
795.11	20752.48
795.43	20918.77
795.75	21074.69
796.08	20570.62
796.40	20946.08
796.72	20736.91
797.05	20980.21
797.37	21057.76
797.69	21054.21
798.01	20779.24
798.34	20287.72
798.66	20268.34
798.98	20469.58
799.30	20250.04
799.63	20203.89
799.95	20273.80
800.27	20258.78
800.59	20328.96
800.91	20329.78
801.24	20161.30
801.56	20392.85
801.88	20342.88
802.20	20366.09
802.53	20017.94
802.85	19911.44
803.17	19687.81
803.49	20101.50
803.81	20045.25
804.13	20082.38
804.46	19857.38
804.78	19546.36
805.10	19285.31
805.42	19429.76
805.74	19588.14
806.06	19280.67
806.38	19582.68
806.71	19522.88
807.03	19335.28
807.35	19123.11
807.67	18811.28
807.99	18682.12
808.31	18650.17
808.63	18820.83
808.95	18850.32
809.27	18768.13
809.59	18503.26
809.91	18391.31
810.24	18378.74
810.56	18105.96
810.88	18181.32
811.20	18137.63
811.52	18102.68
811.84	18013.66
812.16	18224.46
812.48	18073.46
812.80	17556.83
813.12	17388.07
813.44	16888.10
813.76	16221.28
814.08	15806.50
814.40	15261.19
814.72	14763.94
815.04	14222.46
815.36	13935.74
815.68	13929.19
816.00	13585.68
816.32	13372.96
816.64	13121.47
816.96	13315.35
817.28	13900.52
817.60	13851.64
817.92	13794.30
818.24	13583.77
818.55	13879.22
818.87	14085.66
819.19	14023.94
819.51	13835.26
819.83	13518.51
820.15	13532.70
820.47	13717.84
820.79	14153.65
821.11	14109.14
821.43	14310.11
821.75	14018.48
822.06	13797.03
822.38	13267.56
822.70	12185.69
823.02	11302.88
823.34	11125.11
823.66	11942.12
823.98	12878.17
824.29	13109.18
824.61	13424.03
824.93	13345.11
825.25	13208.85
825.57	13055.94
825.88	13079.15
826.20	13041.19
826.52	13345.93
826.84	13536.25
827.16	13284.22
827.47	12834.21
827.79	12321.67
828.11	12267.33
828.43	12390.21
828.75	12553.50
829.06	12535.75
829.38	12425.71
829.70	12450.28
830.02	12723.07
830.33	12923.50
830.65	12832.85
830.97	12933.61
831.28	12695.49
831.60	12449.47
831.92	12202.89
832.24	11935.56
832.55	11924.37
832.87	11751.79
833.19	11542.08
833.50	11554.91
833.82	11595.33
834.14	11703.73
834.45	11686.53
834.77	11934.20
835.09	12062.54
835.40	12025.95
835.72	11816.51
836.04	11623.72
836.35	11652.40
836.67	11784.83
836.99	11819.24
837.30	11671.78
837.62	11679.70
837.93	11714.93
838.25	11762.99
838.57	11708.92
838.88	11746.33
839.20	11930.10
839.51	12130.26
839.83	12192.79
840.15	12246.03
840.46	12402.77
840.78	12313.75
841.09	12252.86
841.41	12182.41
841.72	12152.92
842.04	12026.49
842.35	11956.04
842.67	11894.88
842.98	11804.76
843.30	11689.53
843.62	11553.55
843.93	11495.11
844.25	11368.41
844.56	11387.53
844.88	11355.30
845.19	11390.26
845.51	11618.81
845.82	11568.02
846.13	11567.75
846.45	11344.93
846.76	11141.77
847.08	11085.25
847.39	11161.98
847.71	11100.54
848.02	11175.08
848.34	11029.54
848.65	11009.88
848.97	10983.39
849.28	10801.26
849.59	10373.37
849.91	9939.75
850.22	9730.04
850.54	9996.82
850.85	10220.46
851.16	10219.36
851.48	10214.45
851.79	10090.75
852.10	10001.19
852.42	10146.18
852.73	10174.85
853.05	10133.08
853.36	10046.24
853.67	9682.25
853.99	8757.11
854.30	8037.59
854.61	7939.84
854.93	8686.39
855.24	9326.45
855.55	9583.95
855.87	9725.67
856.18	9809.77
856.49	10001.73
856.80	10100.58
857.12	10012.11
857.43	9730.86
857.74	9573.03
858.06	9499.57
858.37	9437.59
858.68	9391.17
858.99	9316.62
859.31	9239.62
859.62	9174.35
859.93	9134.76
860.24	9229.79
860.56	9190.46
860.87	9198.38
861.18	9022.26
861.49	8926.41
861.80	8956.18
862.12	8960.55
862.43	8834.39
862.74	8737.18
863.05	8715.61
863.36	8753.02
863.68	8776.77
863.99	8736.91
864.30	8778.69
864.61	8671.37
864.92	8479.96
865.23	8435.72
865.55	8256.86
865.86	7734.50
866.17	7204.21
866.48	6885.00
866.79	7165.16
867.10	7861.20
867.41	8182.04
867.72	8376.19
868.04	8357.62
868.35	8277.34
868.66	8306.29
868.97	8279.26
869.28	8198.70
869.59	8230.38
869.90	8242.12
870.21	8244.03
870.52	8341.24
870.83	8341.24
871.14	8299.73
871.45	8275.43
871.76	8244.03
872.07	8162.11
872.38	8035.14
872.69	7916.63
873.00	7845.09
873.31	7797.85
873.62	7629.09
873.93	7409.82
874.24	7404.64
874.55	7206.67
874.86	7272.75
875.17	7296.78
875.48	7332.55
875.79	7409.55
876.10	7264.01
876.41	7333.64
876.72	7247.62
877.03	6990.67
877.34	6835.57
877.65	6871.07
877.96	6816.19
878.27	6829.84
878.58	6786.42
878.89	6820.01
879.20	6737.54
879.51	6686.21
879.81	6758.02
880.12	6706.14
880.43	6462.02
880.74	6399.22
881.05	6458.47
881.36	6538.75
881.67	6668.19
881.98	6720.07
882.28	6604.02
882.59	6581.90
882.90	6540.39
883.21	6516.09
883.52	6336.96
883.83	6367.27
884.13	6441.82
884.44	6426.25
884.75	6491.51
885.06	6555.41
885.37	6527.01
885.68	6510.08
885.98	6471.85
886.29	6422.43
886.60	6329.59
886.91	6398.40
887.21	6362.90
887.52	6430.89
887.83	6435.54
888.14	6338.05
888.44	6407.96
888.75	6406.32
889.06	6528.65
889.37	6564.70
889.67	6574.25
889.98	6525.65
890.29	6601.29
890.60	6625.86
890.90	6666.27
891.21	6667.37
891.52	6637.88
891.82	6595.55
892.13	6546.40
892.44	6347.34
892.74	6310.75
893.05	6210.53
893.36	6155.92
893.66	6263.23
893.97	6178.86
894.28	6028.40
894.58	5955.22
894.89	5779.37
895.20	5684.07
895.50	5629.46
895.81	5627.00
896.11	5536.34
896.42	5400.90
896.73	5239.52
897.03	5247.72
897.34	5175.63
897.64	5172.35
897.95	5371.14
898.26	5281.03
898.56	4970.83
898.87	4555.50
899.17	4580.90
899.48	5001.14
899.78	5300.42
900.09	5134.67
900.39	4950.35
900.70	5119.10
901.00	5076.23
901.31	4976.56
901.62	4954.72
901.92	4900.38
902.23	4817.10
902.53	4801.53
902.84	4870.34
903.14	5030.63
903.44	5196.93
903.75	5205.39
904.05	5116.92
904.36	5112.00
904.66	5027.63
904.97	5021.07
905.27	4962.91
905.58	4962.09
905.88	4791.70
906.19	4642.34
906.49	4403.41
906.79	4266.87
907.10	4193.42
907.40	4080.10
907.71	4042.69
908.01	4006.92
908.31	3849.64
908.62	3901.79
908.92	3778.37
909.23	3804.58
909.53	3768.26
909.83	3782.46
910.14	3715.56
910.44	3729.21
910.74	3880.22
911.05	3998.18
911.35	4019.48
911.65	3933.19
911.96	3890.59
912.26	3976.34
912.56	3893.60
912.87	3637.47
913.17	3391.71
913.47	3463.25
913.78	3486.19
914.08	3687.71
914.38	3893.60
914.69	3666.96
914.99	3422.84
915.29	3267.47
915.59	3229.51
915.90	3454.51
916.20	3674.06
916.50	3641.83
916.80	3530.97
917.11	3266.37
917.41	3158.24
917.71	3204.39
918.01	3438.13
918.31	3458.61
918.62	3476.36
918.92	3377.78
919.22	3385.70
919.52	3346.11
919.82	3400.72
920.13	3376.42
920.43	3268.01
920.73	3193.74
921.03	3058.30
921.33	2955.08
921.63	2941.70
921.94	2974.74
922.24	2937.88
922.54	2855.96
922.84	2803.53
923.14	2744.01
923.44	2769.13
923.74	2762.03
924.05	2688.30
924.35	2780.87
924.65	2737.45
924.95	2765.58
925.25	2710.69
925.55	2727.35
925.85	2707.69
926.15	2727.35
926.45	2769.67
926.75	2766.12
927.05	2631.23
927.35	2456.20
927.65	2329.50
927.95	2187.23
928.25	2055.89
928.56	2003.19
928.86	2002.37
929.16	1903.25
929.46	1766.99
929.76	1649.57
930.06	1567.38
930.36	1472.90
930.66	1421.84
930.96	1325.99
931.26	1199.29
931.55	1060.30
931.85	933.87
932.15	948.07
932.45	894.83
932.75	867.79
933.05	818.37
933.35	656.17
933.65	555.41
933.95	465.30
934.25	508.17
934.55	598.55
934.85	645.79
935.15	587.36
935.45	529.74
935.75	510.08
936.04	528.92
936.34	509.81
936.64	453.01
936.94	422.43
937.24	383.93
937.54	368.09
937.84	357.44
938.14	368.63
938.43	447.00
938.73	532.20
939.03	599.10
939.33	595.28
939.63	563.87
939.92	544.49
940.22	461.20
940.52	419.70
940.82	430.35
941.12	399.76
941.42	421.06
941.71	408.23
942.01	385.56
942.31	326.04
942.61	320.85
942.90	309.65
943.20	315.66
943.50	289.72
943.80	197.70
944.09	172.03
944.39	249.58
944.69	287.81
944.99	262.41
945.28	251.49
945.58	226.10
945.88	189.23
946.17	260.77
946.47	264.60
946.77	286.99
947.06	275.79
947.36	287.26
947.66	250.94
947.96	264.32
948.25	305.83
948.55	339.14
948.84	339.42
949.14	301.73
949.44	215.72
949.73	194.42
950.03	258.59
950.33	328.77
950.62	367.00
950.92	385.84
951.21	376.01
951.51	321.12
951.81	250.13
952.10	258.59
952.40	280.16
952.69	324.13
952.99	337.23
953.29	355.25
953.58	398.13
953.88	344.06
954.17	314.57
954.47	325.49
954.76	291.36
955.06	291.90
955.35	266.78
955.65	272.52
955.94	301.46
956.24	299.55
956.53	288.08
956.83	335.05
957.12	354.98
957.42	419.97
957.71	369.18
958.01	367.54
958.30	360.72
958.60	312.11
958.89	286.99
959.19	283.98
959.48	316.48
959.78	350.89
960.07	346.52
960.37	345.70
960.66	354.71
960.95	374.91
961.25	390.75
961.54	400.31
961.84	392.66
962.13	380.10
962.42	420.52
962.72	451.37
963.01	465.57
963.31	465.57
963.60	433.62
963.89	411.78
964.19	400.86
964.48	451.10
964.77	459.56
965.07	488.24
965.36	457.93
965.65	450.55
965.95	428.16
966.24	390.48
966.53	376.01
966.83	414.51
967.12	414.24
967.41	448.10
967.71	444.82
968.00	434.99
968.29	450.01
968.58	451.10
968.88	468.03
969.17	456.56
969.46	456.01
969.76	453.83
970.05	438.27
970.34	452.74
970.63	424.07
970.92	481.96
971.22	427.07
971.51	423.25
971.80	436.63
972.09	410.96
972.39	376.28
972.68	405.22
972.97	396.49
973.26	380.10
973.55	360.17
973.84	327.13
974.14	358.26
974.43	375.73
974.72	361.53
975.01	330.95
975.30	346.52
975.59	307.47
975.89	286.72
976.18	277.70
976.47	276.34
976.76	305.56
977.05	304.46
977.34	324.94
977.63	327.40
977.92	308.29
978.21	296.00
978.51	304.46
978.80	308.83
979.09	256.41
979.38	247.12
979.67	250.94
979.96	284.53
980.25	270.60
980.54	247.67
980.83	277.70
981.12	273.88
981.41	291.90
981.70	288.63
981.99	249.85
982.28	280.44
982.57	247.67
982.86	243.84
983.15	242.21
983.44	228.55
983.73	243.30
984.02	235.11
984.31	232.65
984.60	196.88
984.89	212.72
985.18	196.88
985.47	183.22
985.76	193.33
986.05	175.03
986.34	153.19
986.63	181.86
986.92	154.55
987.21	140.08
987.49	137.90
987.78	149.09
988.07	154.01
988.36	150.46
988.65	147.73
988.94	161.93
989.23	126.15
989.52	151.00
989.80	137.35
990.09	133.25
990.38	132.98
990.67	128.61
990.96	129.43
991.25	134.62
991.54	132.71
991.82	115.23
992.11	120.69
992.40	119.06
992.69	132.16
992.98	81.10
993.26	99.39
993.55	46.42
993.84	61.17
994.13	44.51
994.42	34.95
994.70	16.66
994.99	42.05
995.28	32.22
995.57	16.66
995.85	20.21
996.14	15.84
996.43	38.77
996.72	36.32
997.00	15.56
997.29	23.76
997.58	6.01
997.86	7.10
998.15	5.19
998.44	7.65
998.73	7.10
999.01	0.00
999.30	1.09
999.59	9.83
999.87	5.73
1000.16	0.00
1000.45	0.82
1000.73	0.00
1001.02	3.82
1001.30	0.00
1001.59	0.00
1001.88	1.37
1002.16	0.00
1002.45	0.00
1002.74	0.27
1003.02	0.00
1003.31	0.00
1003.59	0.00
1003.88	3.55
1004.17	0.00
1004.45	0.00
1004.74	0.00
1005.02	0.27
1005.31	0.00
1005.59	0.00
1005.88	0.00
1006.16	0.00
1006.45	0.00
1006.73	0.00
1007.02	0.00
1007.31	0.00
1007.59	0.00
1007.88	0.00
1008.16	0.00
1008.45	0.00
1008.73	0.00
1009.02	0.00
1009.30	0.00
1009.58	0.00
1009.87	0.00
1010.15	0.00
1010.44	0.00
1010.72	0.00
1011.01	0.00
1011.29	0.00
1011.58	0.00
1011.86	0.00
1012.14	0.00
1012.43	0.00
1012.71	0.00
1013.00	0.00
1013.28	0.00
1013.56	0.00
1013.85	0.00
1014.13	0.00
1014.42	0.00
1014.70	0.00
1014.98	0.00
1015.27	0.00
1015.55	0.00
1015.83	0.00
1016.12	0.00
1016.40	0.00
1016.68	0.00
1016.97	0.00
1017.25	0.00
1017.53	0.00
1017.82	0.00
1018.10	0.00
1018.38	0.00
1018.67	0.00
1018.95	0.00
1019.23	0.00
1019.51	0.00
1019.80	0.00
1020.08	0.00
1020.36	0.00
1020.64	0.00
1020.93	0.00
1021.21	0.00
1021.49	0.00
1021.77	0.00
1022.06	0.00
1022.34	0.00
1022.62	0.00
1022.90	0.00
1023.18	0.00
1023.47	0.00
1023.75	0.00
1024.03	0.00
1024.31	0.00
1024.59	0.00
1024.87	0.00
1025.16	0.00
1025.44	0.00
>>>>>End Processed Spectral Data<<<<<
