SpectraSuite Data File
++++++++++++++++++++++++++++++++++++
Date: Mon Apr 24 13:54:39 ART 2023
User: guille
Dark Spectrum Present: No
Reference Spectrum Present: No
Number of Sampled Component Spectra: 1
Spectrometers: USB2+H13674
Integration Time (usec): 3000 (USB2+H13674)
Spectra Averaged: 10 (USB2+H13674)
Boxcar Smoothing: 0 (USB2+H13674)
Correct for Electrical Dark: No (USB2+H13674)
Strobe/Lamp Enabled: No (USB2+H13674)
Correct for Detector Non-linearity: No (USB2+H13674)
Correct for Stray Light: No (USB2+H13674)
Number of Pixels in Processed Spectrum: 2048
>>>>>Begin Processed Spectral Data<<<<<
339.87	0.00
340.25	0.00
340.63	0.00
341.02	0.00
341.40	0.00
341.78	0.00
342.16	0.00
342.55	0.00
342.93	0.00
343.31	0.00
343.69	0.00
344.08	0.00
344.46	0.00
344.84	0.00
345.22	0.00
345.60	0.00
345.99	0.00
346.37	0.00
346.75	0.00
347.13	0.00
347.51	0.00
347.90	0.00
348.28	0.00
348.66	0.00
349.04	0.00
349.42	0.00
349.80	0.00
350.19	0.00
350.57	0.00
350.95	0.00
351.33	0.00
351.71	0.00
352.09	0.00
352.47	0.00
352.86	0.00
353.24	0.00
353.62	0.00
354.00	0.00
354.38	0.00
354.76	0.00
355.14	0.00
355.52	0.00
355.90	0.00
356.28	0.00
356.67	0.00
357.05	0.00
357.43	0.00
357.81	0.00
358.19	0.00
358.57	0.00
358.95	0.00
359.33	0.00
359.71	0.00
360.09	0.00
360.47	0.00
360.85	0.00
361.23	0.00
361.61	0.00
361.99	0.00
362.37	0.00
362.75	0.00
363.13	0.00
363.51	0.00
363.89	0.00
364.27	0.00
364.65	0.00
365.03	0.00
365.41	0.00
365.79	0.00
366.17	0.00
366.55	0.00
366.93	0.00
367.31	0.00
367.69	0.00
368.07	0.00
368.45	0.00
368.83	0.00
369.21	0.00
369.59	0.00
369.97	0.00
370.35	0.00
370.73	0.00
371.11	0.00
371.49	0.00
371.87	0.00
372.25	0.00
372.62	0.00
373.00	0.00
373.38	0.00
373.76	0.00
374.14	0.00
374.52	0.00
374.90	0.00
375.28	0.00
375.66	0.00
376.03	0.00
376.41	0.00
376.79	0.00
377.17	0.00
377.55	0.00
377.93	0.00
378.31	0.00
378.68	0.00
379.06	0.00
379.44	0.00
379.82	0.00
380.20	0.00
380.58	0.00
380.95	0.00
381.33	0.00
381.71	0.00
382.09	0.00
382.47	0.00
382.85	0.00
383.22	0.00
383.60	0.00
383.98	0.00
384.36	0.00
384.73	0.00
385.11	0.00
385.49	0.00
385.87	0.00
386.25	0.00
386.62	0.00
387.00	0.00
387.38	0.00
387.76	0.00
388.13	0.00
388.51	0.00
388.89	0.00
389.26	0.00
389.64	0.00
390.02	0.00
390.40	0.00
390.77	0.00
391.15	0.00
391.53	0.00
391.90	0.00
392.28	0.00
392.66	0.00
393.04	0.00
393.41	0.00
393.79	0.00
394.17	0.00
394.54	0.00
394.92	0.00
395.30	0.00
395.67	0.00
396.05	0.00
396.42	0.00
396.80	0.00
397.18	0.00
397.55	0.00
397.93	0.00
398.31	0.00
398.68	0.00
399.06	0.00
399.44	0.00
399.81	0.00
400.19	0.00
400.56	0.00
400.94	0.00
401.32	0.00
401.69	0.00
402.07	0.00
402.44	0.00
402.82	0.00
403.19	0.00
403.57	0.00
403.95	0.00
404.32	0.00
404.70	0.00
405.07	0.00
405.45	0.00
405.82	0.00
406.20	0.00
406.57	0.00
406.95	0.00
407.32	0.00
407.70	0.00
408.07	0.00
408.45	0.00
408.82	0.00
409.20	0.00
409.57	0.00
409.95	0.00
410.32	0.00
410.70	0.00
411.07	0.00
411.45	0.00
411.82	0.00
412.20	0.00
412.57	0.00
412.95	0.00
413.32	0.00
413.70	0.00
414.07	0.00
414.45	0.00
414.82	0.00
415.19	0.00
415.57	0.00
415.94	0.00
416.32	0.00
416.69	0.00
417.07	0.00
417.44	0.00
417.81	0.00
418.19	0.00
418.56	0.00
418.94	0.00
419.31	0.00
419.68	0.00
420.06	0.00
420.43	0.00
420.80	0.00
421.18	0.00
421.55	0.00
421.93	0.00
422.30	0.00
422.67	0.00
423.05	0.00
423.42	0.00
423.79	0.00
424.17	0.00
424.54	0.00
424.91	0.00
425.29	0.00
425.66	0.00
426.03	0.00
426.40	0.00
426.78	0.00
427.15	0.00
427.52	0.00
427.90	0.00
428.27	0.00
428.64	0.00
429.02	0.00
429.39	0.00
429.76	0.00
430.13	0.00
430.51	0.00
430.88	0.00
431.25	0.00
431.62	0.00
432.00	0.00
432.37	0.00
432.74	0.00
433.11	0.00
433.48	0.00
433.86	0.00
434.23	0.00
434.60	0.00
434.97	0.00
435.35	0.00
435.72	0.00
436.09	0.00
436.46	0.00
436.83	0.00
437.21	0.00
437.58	0.00
437.95	0.00
438.32	0.00
438.69	0.00
439.06	0.00
439.44	0.00
439.81	0.00
440.18	0.00
440.55	0.00
440.92	0.00
441.29	0.00
441.66	0.00
442.03	0.00
442.41	0.00
442.78	0.00
443.15	0.00
443.52	0.00
443.89	0.00
444.26	0.00
444.63	0.00
445.00	0.00
445.37	0.00
445.74	0.00
446.12	0.00
446.49	0.00
446.86	0.00
447.23	0.00
447.60	0.00
447.97	0.00
448.34	0.00
448.71	0.00
449.08	0.00
449.45	0.00
449.82	0.00
450.19	0.00
450.56	0.00
450.93	0.00
451.30	0.00
451.67	0.00
452.04	0.00
452.41	0.00
452.78	0.00
453.15	0.00
453.52	0.00
453.89	0.00
454.26	0.00
454.63	0.00
455.00	0.00
455.37	0.00
455.74	0.00
456.11	0.00
456.48	0.00
456.85	0.00
457.22	0.00
457.59	0.00
457.96	0.00
458.33	0.00
458.70	0.00
459.07	0.00
459.43	0.00
459.80	0.00
460.17	0.00
460.54	0.00
460.91	0.00
461.28	0.00
461.65	0.00
462.02	0.00
462.39	0.00
462.76	0.00
463.12	0.00
463.49	0.00
463.86	0.00
464.23	0.00
464.60	0.00
464.97	0.00
465.34	0.00
465.70	0.00
466.07	0.00
466.44	0.00
466.81	0.00
467.18	0.00
467.55	0.00
467.91	0.00
468.28	0.00
468.65	0.00
469.02	0.00
469.39	0.00
469.75	0.00
470.12	0.00
470.49	0.00
470.86	0.00
471.23	0.00
471.59	0.00
471.96	0.00
472.33	0.00
472.70	0.00
473.06	0.00
473.43	0.00
473.80	0.00
474.17	0.00
474.53	0.00
474.90	0.00
475.27	0.00
475.64	0.00
476.00	0.00
476.37	0.00
476.74	0.00
477.11	0.00
477.47	0.00
477.84	0.00
478.21	0.00
478.57	0.00
478.94	0.00
479.31	0.00
479.67	0.00
480.04	0.00
480.41	0.00
480.77	0.00
481.14	0.00
481.51	0.00
481.87	0.00
482.24	0.00
482.61	0.00
482.97	0.00
483.34	0.00
483.71	0.00
484.07	0.00
484.44	0.00
484.80	0.00
485.17	0.00
485.54	0.00
485.90	0.00
486.27	0.00
486.63	0.00
487.00	0.00
487.37	0.00
487.73	0.00
488.10	0.00
488.46	0.00
488.83	0.00
489.19	0.00
489.56	0.00
489.93	0.00
490.29	0.00
490.66	0.00
491.02	0.00
491.39	0.00
491.75	0.00
492.12	0.00
492.48	0.00
492.85	0.00
493.21	0.00
493.58	0.00
493.94	0.00
494.31	0.00
494.67	0.00
495.04	0.00
495.40	0.00
495.77	0.00
496.13	0.00
496.50	0.00
496.86	0.00
497.23	0.00
497.59	0.00
497.96	0.00
498.32	0.00
498.69	0.00
499.05	0.00
499.41	0.00
499.78	0.00
500.14	0.00
500.51	0.00
500.87	0.00
501.24	0.00
501.60	0.00
501.96	0.00
502.33	0.00
502.69	0.00
503.06	0.00
503.42	0.00
503.78	0.00
504.15	0.00
504.51	0.00
504.88	0.00
505.24	0.00
505.60	0.00
505.97	0.00
506.33	0.00
506.69	0.00
507.06	0.00
507.42	0.00
507.78	0.00
508.15	0.00
508.51	0.00
508.87	0.00
509.24	0.00
509.60	0.00
509.96	0.00
510.33	0.00
510.69	0.00
511.05	0.00
511.41	0.00
511.78	0.00
512.14	0.00
512.50	0.00
512.87	0.00
513.23	0.00
513.59	0.00
513.95	0.00
514.32	0.00
514.68	0.00
515.04	0.00
515.40	0.00
515.77	0.00
516.13	0.00
516.49	0.00
516.85	0.00
517.22	0.00
517.58	0.00
517.94	0.00
518.30	0.00
518.66	0.00
519.03	0.00
519.39	0.00
519.75	0.00
520.11	0.00
520.47	0.00
520.83	0.00
521.20	0.00
521.56	0.00
521.92	0.00
522.28	0.00
522.64	0.00
523.00	0.00
523.37	0.00
523.73	0.00
524.09	0.00
524.45	0.00
524.81	0.00
525.17	0.00
525.53	0.00
525.89	0.00
526.26	0.00
526.62	0.00
526.98	0.00
527.34	0.00
527.70	0.00
528.06	0.00
528.42	0.00
528.78	0.00
529.14	0.00
529.50	0.00
529.86	0.00
530.22	0.00
530.59	0.00
530.95	0.00
531.31	0.00
531.67	0.00
532.03	0.00
532.39	0.00
532.75	0.00
533.11	0.00
533.47	0.00
533.83	0.00
534.19	0.00
534.55	0.00
534.91	0.00
535.27	0.00
535.63	0.00
535.99	0.00
536.35	0.00
536.71	0.00
537.07	0.00
537.43	0.00
537.79	0.00
538.15	0.00
538.51	0.00
538.87	0.00
539.22	0.00
539.58	0.00
539.94	0.00
540.30	0.00
540.66	0.00
541.02	0.00
541.38	0.00
541.74	0.00
542.10	0.00
542.46	0.00
542.82	0.00
543.18	0.00
543.53	0.00
543.89	0.00
544.25	0.00
544.61	0.00
544.97	0.00
545.33	0.00
545.69	0.00
546.05	0.00
546.40	0.00
546.76	0.00
547.12	0.00
547.48	0.00
547.84	0.00
548.20	0.00
548.55	0.00
548.91	0.00
549.27	0.00
549.63	0.00
549.99	0.00
550.34	0.00
550.70	0.00
551.06	0.00
551.42	0.00
551.78	0.00
552.13	0.00
552.49	0.00
552.85	0.00
553.21	0.00
553.57	0.00
553.92	0.00
554.28	0.00
554.64	0.00
555.00	0.00
555.35	0.00
555.71	0.00
556.07	0.00
556.42	0.00
556.78	0.00
557.14	0.00
557.50	0.00
557.85	0.00
558.21	0.00
558.57	0.00
558.92	0.00
559.28	0.00
559.64	0.00
559.99	0.00
560.35	0.00
560.71	0.00
561.06	0.00
561.42	0.00
561.78	0.00
562.13	0.00
562.49	0.00
562.85	0.00
563.20	0.00
563.56	0.00
563.92	0.00
564.27	0.00
564.63	0.00
564.98	0.00
565.34	0.00
565.70	0.00
566.05	0.00
566.41	0.00
566.76	0.00
567.12	0.00
567.48	0.00
567.83	0.00
568.19	0.00
568.54	0.00
568.90	0.00
569.25	0.00
569.61	0.00
569.97	0.00
570.32	0.00
570.68	0.00
571.03	0.00
571.39	0.00
571.74	0.00
572.10	0.00
572.45	0.00
572.81	0.00
573.16	0.00
573.52	0.00
573.87	0.00
574.23	0.00
574.58	0.00
574.94	0.00
575.29	0.00
575.65	0.00
576.00	0.00
576.36	0.00
576.71	0.00
577.07	0.00
577.42	0.00
577.78	0.00
578.13	0.00
578.48	0.00
578.84	0.00
579.19	0.00
579.55	0.00
579.90	0.00
580.26	0.00
580.61	0.00
580.96	0.00
581.32	0.00
581.67	0.00
582.03	0.00
582.38	0.00
582.73	0.00
583.09	0.00
583.44	0.00
583.79	0.00
584.15	0.00
584.50	0.00
584.86	0.00
585.21	0.00
585.56	0.00
585.92	0.00
586.27	0.00
586.62	0.00
586.98	0.00
587.33	0.00
587.68	0.00
588.04	0.00
588.39	0.00
588.74	0.00
589.09	0.00
589.45	0.00
589.80	0.00
590.15	0.00
590.51	0.00
590.86	0.00
591.21	0.00
591.56	0.00
591.92	0.00
592.27	0.00
592.62	0.00
592.97	0.00
593.33	0.00
593.68	0.00
594.03	0.00
594.38	0.00
594.74	0.00
595.09	0.00
595.44	0.00
595.79	0.00
596.14	0.00
596.50	0.00
596.85	0.00
597.20	0.00
597.55	0.00
597.90	0.00
598.26	0.00
598.61	0.00
598.96	0.00
599.31	0.00
599.66	0.00
600.01	0.00
600.37	0.00
600.72	0.00
601.07	0.00
601.42	0.00
601.77	0.00
602.12	0.00
602.47	0.00
602.83	0.00
603.18	0.00
603.53	0.00
603.88	0.00
604.23	0.00
604.58	0.00
604.93	0.00
605.28	0.00
605.63	0.00
605.98	0.00
606.33	0.00
606.69	0.00
607.04	0.00
607.39	0.00
607.74	0.00
608.09	0.00
608.44	0.00
608.79	0.00
609.14	0.00
609.49	0.00
609.84	0.00
610.19	0.00
610.54	0.00
610.89	0.00
611.24	0.00
611.59	0.00
611.94	0.00
612.29	0.00
612.64	0.00
612.99	0.00
613.34	0.00
613.69	0.00
614.04	0.00
614.39	0.00
614.74	0.00
615.09	0.00
615.44	0.00
615.79	0.00
616.14	0.00
616.48	0.00
616.83	0.00
617.18	0.00
617.53	0.00
617.88	0.00
618.23	0.00
618.58	0.00
618.93	0.00
619.28	0.00
619.63	0.00
619.98	0.00
620.32	0.00
620.67	0.00
621.02	0.00
621.37	0.00
621.72	0.00
622.07	0.00
622.42	0.00
622.76	0.00
623.11	0.00
623.46	0.00
623.81	0.00
624.16	0.00
624.51	0.00
624.85	0.00
625.20	0.00
625.55	0.00
625.90	0.00
626.25	0.00
626.59	0.00
626.94	0.00
627.29	0.00
627.64	0.00
627.99	0.00
628.33	0.00
628.68	0.00
629.03	0.00
629.38	0.00
629.72	0.00
630.07	0.00
630.42	0.00
630.77	0.00
631.11	0.00
631.46	0.00
631.81	0.00
632.16	0.00
632.50	0.00
632.85	0.00
633.20	0.00
633.54	0.00
633.89	0.00
634.24	0.00
634.58	0.00
634.93	0.00
635.28	0.00
635.63	0.00
635.97	0.00
636.32	0.00
636.67	0.00
637.01	0.00
637.36	0.00
637.70	0.00
638.05	0.00
638.40	0.00
638.74	0.00
639.09	0.00
639.44	0.00
639.78	0.00
640.13	0.00
640.47	0.00
640.82	0.00
641.17	0.00
641.51	0.00
641.86	0.00
642.20	0.00
642.55	0.00
642.90	0.00
643.24	0.00
643.59	0.00
643.93	0.00
644.28	0.00
644.62	0.00
644.97	0.00
645.31	0.00
645.66	0.00
646.00	0.00
646.35	0.00
646.70	0.00
647.04	0.00
647.39	0.00
647.73	0.00
648.08	0.00
648.42	0.00
648.77	0.00
649.11	0.00
649.46	0.00
649.80	0.00
650.14	0.00
650.49	0.00
650.83	0.00
651.18	0.00
651.52	0.00
651.87	0.00
652.21	0.00
652.56	0.00
652.90	0.00
653.25	0.00
653.59	0.00
653.93	0.00
654.28	0.00
654.62	0.00
654.97	0.00
655.31	0.00
655.65	0.00
656.00	0.00
656.34	0.00
656.69	0.00
657.03	0.00
657.37	0.00
657.72	0.00
658.06	0.00
658.40	0.00
658.75	0.00
659.09	0.00
659.43	0.00
659.78	0.00
660.12	0.00
660.46	0.00
660.81	0.00
661.15	0.00
661.49	0.00
661.84	0.00
662.18	0.00
662.52	0.00
662.87	0.00
663.21	0.00
663.55	0.00
663.89	0.00
664.24	0.00
664.58	0.00
664.92	0.00
665.26	0.00
665.61	0.00
665.95	0.00
666.29	0.00
666.63	0.00
666.98	0.00
667.32	0.00
667.66	0.00
668.00	0.00
668.35	0.00
668.69	0.00
669.03	0.00
669.37	0.00
669.71	0.00
670.06	0.00
670.40	0.00
670.74	0.00
671.08	0.00
671.42	0.00
671.77	0.00
672.11	0.00
672.45	0.00
672.79	0.00
673.13	0.00
673.47	0.00
673.81	0.00
674.16	0.00
674.50	0.00
674.84	0.00
675.18	0.00
675.52	0.00
675.86	0.00
676.20	0.00
676.54	0.00
676.88	0.00
677.23	0.00
677.57	0.00
677.91	0.00
678.25	0.00
678.59	0.00
678.93	0.00
679.27	0.00
679.61	0.00
679.95	0.00
680.29	0.00
680.63	0.00
680.97	0.00
681.31	0.00
681.65	0.00
681.99	0.00
682.33	0.00
682.67	0.00
683.01	0.00
683.35	0.00
683.69	0.00
684.03	0.00
684.37	0.00
684.71	0.00
685.05	0.00
685.39	0.00
685.73	0.00
686.07	0.00
686.41	0.00
686.75	0.00
687.09	0.00
687.43	0.00
687.77	0.00
688.11	0.00
688.45	0.00
688.79	0.00
689.13	0.00
689.47	0.00
689.80	0.00
690.14	0.00
690.48	0.00
690.82	0.00
691.16	0.00
691.50	0.00
691.84	0.00
692.18	0.00
692.52	0.00
692.85	0.00
693.19	0.00
693.53	0.00
693.87	0.00
694.21	0.00
694.55	0.00
694.88	0.00
695.22	0.00
695.56	0.00
695.90	0.00
696.24	0.00
696.58	0.00
696.91	0.00
697.25	0.00
697.59	0.00
697.93	0.00
698.27	0.00
698.60	0.00
698.94	0.00
699.28	0.00
699.62	0.00
699.95	0.00
700.29	0.00
700.63	0.00
700.97	0.00
701.30	0.00
701.64	0.00
701.98	0.00
702.32	0.00
702.65	0.00
702.99	0.00
703.33	0.00
703.66	0.00
704.00	0.00
704.34	0.00
704.68	0.00
705.01	0.00
705.35	0.00
705.69	0.00
706.02	0.00
706.36	0.00
706.70	0.00
707.03	0.00
707.37	0.00
707.71	0.00
708.04	0.00
708.38	0.00
708.72	0.00
709.05	0.00
709.39	0.00
709.72	0.00
710.06	0.00
710.40	0.00
710.73	0.00
711.07	0.00
711.40	0.00
711.74	0.00
712.08	0.00
712.41	0.00
712.75	0.00
713.08	0.00
713.42	0.00
713.75	0.00
714.09	0.00
714.43	0.00
714.76	0.00
715.10	0.00
715.43	0.00
715.77	0.00
716.10	0.00
716.44	0.00
716.77	0.00
717.11	0.00
717.44	0.00
717.78	0.00
718.11	0.00
718.45	0.00
718.78	0.00
719.12	0.00
719.45	0.00
719.79	0.00
720.12	0.00
720.46	0.00
720.79	0.00
721.12	0.00
721.46	0.00
721.79	0.00
722.13	0.00
722.46	0.00
722.80	0.00
723.13	0.00
723.46	0.00
723.80	0.00
724.13	0.00
724.47	0.00
724.80	0.00
725.13	0.00
725.47	0.00
725.80	0.00
726.14	0.00
726.47	0.00
726.80	0.00
727.14	0.00
727.47	0.00
727.80	0.00
728.14	0.00
728.47	0.00
728.80	0.00
729.14	0.00
729.47	0.00
729.80	0.00
730.14	0.00
730.47	0.00
730.80	0.00
731.14	0.00
731.47	0.00
731.80	0.00
732.14	0.00
732.47	0.00
732.80	0.00
733.13	0.00
733.47	0.00
733.80	0.00
734.13	0.00
734.46	0.00
734.80	0.00
735.13	0.00
735.46	0.00
735.79	0.00
736.13	0.00
736.46	0.00
736.79	0.00
737.12	0.00
737.45	0.00
737.79	0.00
738.12	0.00
738.45	0.00
738.78	0.00
739.11	0.00
739.45	0.00
739.78	0.00
740.11	0.00
740.44	0.00
740.77	0.00
741.10	0.00
741.44	0.00
741.77	0.00
742.10	0.00
742.43	0.00
742.76	0.00
743.09	0.00
743.42	0.00
743.75	0.00
744.08	0.00
744.42	0.00
744.75	0.00
745.08	0.00
745.41	0.00
745.74	0.00
746.07	0.00
746.40	0.00
746.73	0.00
747.06	0.00
747.39	0.00
747.72	0.00
748.05	0.00
748.38	0.00
748.71	0.00
749.04	0.00
749.37	0.00
749.71	0.00
750.04	0.00
750.37	0.00
750.70	0.00
751.03	0.00
751.36	0.00
751.69	0.00
752.02	0.00
752.34	0.00
752.67	0.00
753.00	0.00
753.33	0.00
753.66	0.00
753.99	0.00
754.32	0.00
754.65	0.00
754.98	0.00
755.31	0.00
755.64	0.00
755.97	0.00
756.30	0.00
756.63	0.00
756.96	0.00
757.29	0.00
757.61	0.00
757.94	0.00
758.27	0.00
758.60	0.00
758.93	0.00
759.26	0.00
759.59	0.00
759.92	0.00
760.24	0.00
760.57	0.00
760.90	0.00
761.23	0.00
761.56	0.00
761.89	0.00
762.22	0.00
762.54	0.00
762.87	0.00
763.20	0.00
763.53	0.00
763.86	0.00
764.18	0.00
764.51	0.00
764.84	0.00
765.17	0.00
765.50	0.00
765.82	0.00
766.15	0.00
766.48	0.00
766.81	0.00
767.13	0.00
767.46	0.00
767.79	0.00
768.12	0.00
768.44	0.00
768.77	0.00
769.10	0.00
769.42	0.00
769.75	0.00
770.08	0.00
770.41	0.00
770.73	0.00
771.06	0.00
771.39	0.00
771.71	0.00
772.04	0.00
772.37	0.00
772.69	0.00
773.02	0.00
773.35	0.00
773.67	0.00
774.00	0.00
774.33	0.00
774.65	0.00
774.98	0.00
775.30	0.00
775.63	0.00
775.96	0.00
776.28	0.00
776.61	0.00
776.93	0.00
777.26	0.00
777.59	0.00
777.91	0.00
778.24	0.00
778.56	0.00
778.89	0.00
779.22	0.00
779.54	0.00
779.87	0.00
780.19	0.00
780.52	0.00
780.84	0.00
781.17	0.00
781.49	0.00
781.82	0.00
782.14	0.00
782.47	0.00
782.79	0.00
783.12	0.00
783.44	0.00
783.77	0.00
784.09	0.00
784.42	0.00
784.74	0.00
785.07	0.00
785.39	0.00
785.72	0.00
786.04	0.00
786.37	0.00
786.69	0.00
787.01	0.00
787.34	0.00
787.66	0.00
787.99	0.00
788.31	0.00
788.64	0.00
788.96	0.00
789.28	0.00
789.61	0.00
789.93	0.00
790.26	0.00
790.58	0.00
790.90	0.00
791.23	0.00
791.55	0.00
791.87	0.00
792.20	0.00
792.52	0.00
792.85	0.00
793.17	0.00
793.49	0.00
793.82	0.00
794.14	0.00
794.46	0.00
794.78	0.00
795.11	0.00
795.43	0.00
795.75	0.00
796.08	0.00
796.40	0.00
796.72	0.00
797.05	0.00
797.37	0.00
797.69	0.00
798.01	0.00
798.34	0.00
798.66	0.00
798.98	0.00
799.30	0.00
799.63	0.00
799.95	0.00
800.27	0.00
800.59	0.00
800.91	0.00
801.24	0.00
801.56	0.00
801.88	0.00
802.20	0.00
802.53	0.00
802.85	0.00
803.17	0.00
803.49	0.00
803.81	0.00
804.13	0.00
804.46	0.00
804.78	0.00
805.10	0.00
805.42	0.00
805.74	0.00
806.06	0.00
806.38	0.00
806.71	0.00
807.03	0.00
807.35	0.00
807.67	0.00
807.99	0.00
808.31	0.00
808.63	0.00
808.95	0.00
809.27	0.00
809.59	0.00
809.91	0.00
810.24	0.00
810.56	0.00
810.88	0.00
811.20	0.00
811.52	0.00
811.84	0.00
812.16	0.00
812.48	0.00
812.80	0.00
813.12	0.00
813.44	0.00
813.76	0.00
814.08	0.00
814.40	0.00
814.72	0.00
815.04	0.00
815.36	0.00
815.68	0.00
816.00	0.00
816.32	0.00
816.64	0.00
816.96	0.00
817.28	0.00
817.60	0.00
817.92	0.00
818.24	0.00
818.55	0.00
818.87	0.00
819.19	0.00
819.51	0.00
819.83	0.00
820.15	0.00
820.47	0.00
820.79	0.00
821.11	0.00
821.43	0.00
821.75	0.00
822.06	0.00
822.38	0.00
822.70	0.00
823.02	0.00
823.34	0.00
823.66	0.00
823.98	0.00
824.29	0.00
824.61	0.00
824.93	0.00
825.25	0.00
825.57	0.00
825.88	0.00
826.20	0.00
826.52	0.00
826.84	0.00
827.16	0.00
827.47	0.00
827.79	0.00
828.11	0.00
828.43	0.00
828.75	0.00
829.06	0.00
829.38	0.00
829.70	0.00
830.02	0.00
830.33	0.00
830.65	0.00
830.97	0.00
831.28	0.00
831.60	0.00
831.92	0.00
832.24	0.00
832.55	0.00
832.87	0.00
833.19	0.00
833.50	0.00
833.82	0.00
834.14	0.00
834.45	0.00
834.77	0.00
835.09	0.00
835.40	0.00
835.72	0.00
836.04	0.00
836.35	0.00
836.67	0.00
836.99	0.00
837.30	0.00
837.62	0.00
837.93	0.00
838.25	0.00
838.57	0.00
838.88	0.00
839.20	0.00
839.51	0.00
839.83	0.00
840.15	0.00
840.46	0.00
840.78	0.00
841.09	0.00
841.41	0.00
841.72	0.00
842.04	0.00
842.35	0.00
842.67	0.00
842.98	0.00
843.30	0.00
843.62	0.00
843.93	0.00
844.25	0.00
844.56	0.00
844.88	0.00
845.19	0.00
845.51	0.00
845.82	0.00
846.13	0.00
846.45	0.00
846.76	0.00
847.08	0.00
847.39	0.00
847.71	0.00
848.02	0.00
848.34	0.00
848.65	0.00
848.97	0.00
849.28	0.00
849.59	0.00
849.91	0.00
850.22	0.00
850.54	0.00
850.85	0.00
851.16	0.00
851.48	0.00
851.79	0.00
852.10	0.00
852.42	0.00
852.73	0.00
853.05	0.00
853.36	0.00
853.67	0.00
853.99	0.00
854.30	0.00
854.61	0.00
854.93	0.00
855.24	0.00
855.55	0.00
855.87	0.00
856.18	0.00
856.49	0.00
856.80	0.00
857.12	0.00
857.43	0.00
857.74	0.00
858.06	0.00
858.37	0.00
858.68	0.00
858.99	0.00
859.31	0.00
859.62	0.00
859.93	0.00
860.24	0.00
860.56	0.00
860.87	0.00
861.18	0.00
861.49	0.00
861.80	0.00
862.12	0.00
862.43	0.00
862.74	0.00
863.05	0.00
863.36	0.00
863.68	0.00
863.99	0.00
864.30	0.00
864.61	0.00
864.92	0.00
865.23	0.00
865.55	0.00
865.86	0.00
866.17	0.00
866.48	0.00
866.79	0.00
867.10	0.00
867.41	0.00
867.72	0.00
868.04	0.00
868.35	0.00
868.66	0.00
868.97	0.00
869.28	0.00
869.59	0.00
869.90	0.00
870.21	0.00
870.52	0.00
870.83	0.00
871.14	0.00
871.45	0.00
871.76	0.00
872.07	0.00
872.38	0.00
872.69	0.00
873.00	0.00
873.31	0.00
873.62	0.00
873.93	0.00
874.24	0.00
874.55	0.00
874.86	0.00
875.17	0.00
875.48	0.00
875.79	0.00
876.10	0.00
876.41	0.00
876.72	0.00
877.03	0.00
877.34	0.00
877.65	0.00
877.96	0.00
878.27	0.00
878.58	0.00
878.89	0.00
879.20	0.00
879.51	0.00
879.81	0.00
880.12	0.00
880.43	0.00
880.74	0.00
881.05	0.00
881.36	0.00
881.67	0.00
881.98	0.00
882.28	0.00
882.59	0.00
882.90	0.00
883.21	0.00
883.52	0.00
883.83	0.00
884.13	0.00
884.44	0.00
884.75	0.00
885.06	0.00
885.37	0.00
885.68	0.00
885.98	0.00
886.29	0.00
886.60	0.00
886.91	0.00
887.21	0.00
887.52	0.00
887.83	0.00
888.14	0.00
888.44	0.00
888.75	0.00
889.06	0.00
889.37	0.00
889.67	0.00
889.98	0.00
890.29	0.00
890.60	0.00
890.90	0.00
891.21	0.00
891.52	0.00
891.82	0.00
892.13	0.00
892.44	0.00
892.74	0.00
893.05	0.00
893.36	0.00
893.66	0.00
893.97	0.00
894.28	0.00
894.58	0.00
894.89	0.00
895.20	0.00
895.50	0.00
895.81	0.00
896.11	0.00
896.42	0.00
896.73	0.00
897.03	0.00
897.34	0.00
897.64	0.00
897.95	0.00
898.26	0.00
898.56	0.00
898.87	0.00
899.17	0.00
899.48	0.00
899.78	0.00
900.09	0.00
900.39	0.00
900.70	0.00
901.00	0.00
901.31	0.00
901.62	0.00
901.92	0.00
902.23	0.00
902.53	0.00
902.84	0.00
903.14	0.00
903.44	0.00
903.75	0.00
904.05	0.00
904.36	0.00
904.66	0.00
904.97	0.00
905.27	0.00
905.58	0.00
905.88	0.00
906.19	0.00
906.49	0.00
906.79	0.00
907.10	0.00
907.40	0.00
907.71	0.00
908.01	0.00
908.31	0.00
908.62	0.00
908.92	0.00
909.23	0.00
909.53	0.00
909.83	0.00
910.14	0.00
910.44	0.00
910.74	0.00
911.05	0.00
911.35	0.00
911.65	0.00
911.96	0.00
912.26	0.00
912.56	0.00
912.87	0.00
913.17	0.00
913.47	0.00
913.78	0.00
914.08	0.00
914.38	0.00
914.69	0.00
914.99	0.00
915.29	0.00
915.59	0.00
915.90	0.00
916.20	0.00
916.50	0.00
916.80	0.00
917.11	0.00
917.41	0.00
917.71	0.00
918.01	0.00
918.31	0.00
918.62	0.00
918.92	0.00
919.22	0.00
919.52	0.00
919.82	0.00
920.13	0.00
920.43	0.00
920.73	0.00
921.03	0.00
921.33	0.00
921.63	0.00
921.94	0.00
922.24	0.00
922.54	0.00
922.84	0.00
923.14	0.00
923.44	0.00
923.74	0.00
924.05	0.00
924.35	0.00
924.65	0.00
924.95	0.00
925.25	0.00
925.55	0.00
925.85	0.00
926.15	0.00
926.45	0.00
926.75	0.00
927.05	0.00
927.35	0.00
927.65	0.00
927.95	0.00
928.25	0.00
928.56	0.00
928.86	0.00
929.16	0.00
929.46	0.00
929.76	0.00
930.06	0.00
930.36	0.00
930.66	0.00
930.96	0.00
931.26	0.00
931.55	0.00
931.85	0.00
932.15	0.00
932.45	0.00
932.75	0.00
933.05	0.00
933.35	0.00
933.65	0.00
933.95	0.00
934.25	0.00
934.55	0.00
934.85	0.00
935.15	0.00
935.45	0.00
935.75	0.00
936.04	0.00
936.34	0.00
936.64	0.00
936.94	0.00
937.24	0.00
937.54	0.00
937.84	0.00
938.14	0.00
938.43	0.00
938.73	0.00
939.03	0.00
939.33	0.00
939.63	0.00
939.92	0.00
940.22	0.00
940.52	0.00
940.82	0.00
941.12	0.00
941.42	0.00
941.71	0.00
942.01	0.00
942.31	0.00
942.61	0.00
942.90	0.00
943.20	0.00
943.50	0.00
943.80	0.00
944.09	0.00
944.39	0.00
944.69	0.00
944.99	0.00
945.28	0.00
945.58	0.00
945.88	0.00
946.17	0.00
946.47	0.00
946.77	0.00
947.06	0.00
947.36	0.00
947.66	0.00
947.96	0.00
948.25	0.00
948.55	0.00
948.84	0.00
949.14	0.00
949.44	0.00
949.73	0.00
950.03	0.00
950.33	0.00
950.62	0.00
950.92	0.00
951.21	0.00
951.51	0.00
951.81	0.00
952.10	0.00
952.40	0.00
952.69	0.00
952.99	0.00
953.29	0.00
953.58	0.00
953.88	0.00
954.17	0.00
954.47	0.00
954.76	0.00
955.06	0.00
955.35	0.00
955.65	0.00
955.94	0.00
956.24	0.00
956.53	0.00
956.83	0.00
957.12	0.00
957.42	0.00
957.71	0.00
958.01	0.00
958.30	0.00
958.60	0.00
958.89	0.00
959.19	0.00
959.48	0.00
959.78	0.00
960.07	0.00
960.37	0.00
960.66	0.00
960.95	0.00
961.25	0.00
961.54	0.00
961.84	0.00
962.13	0.00
962.42	0.00
962.72	0.00
963.01	0.00
963.31	0.00
963.60	0.00
963.89	0.00
964.19	0.00
964.48	0.00
964.77	0.00
965.07	0.00
965.36	0.00
965.65	0.00
965.95	0.00
966.24	0.00
966.53	0.00
966.83	0.00
967.12	0.00
967.41	0.00
967.71	0.00
968.00	0.00
968.29	0.00
968.58	0.00
968.88	0.00
969.17	0.00
969.46	0.00
969.76	0.00
970.05	0.00
970.34	0.00
970.63	0.00
970.92	0.00
971.22	0.00
971.51	0.00
971.80	0.00
972.09	0.00
972.39	0.00
972.68	0.00
972.97	0.00
973.26	0.00
973.55	0.00
973.84	0.00
974.14	0.00
974.43	0.00
974.72	0.00
975.01	0.00
975.30	0.00
975.59	0.00
975.89	0.00
976.18	0.00
976.47	0.00
976.76	0.00
977.05	0.00
977.34	0.00
977.63	0.00
977.92	0.00
978.21	0.00
978.51	0.00
978.80	0.00
979.09	0.00
979.38	0.00
979.67	0.00
979.96	0.00
980.25	0.00
980.54	0.00
980.83	0.00
981.12	0.00
981.41	0.00
981.70	0.00
981.99	0.00
982.28	0.00
982.57	0.00
982.86	0.00
983.15	0.00
983.44	0.00
983.73	0.00
984.02	0.00
984.31	0.00
984.60	0.00
984.89	0.00
985.18	0.00
985.47	0.00
985.76	0.00
986.05	0.00
986.34	0.00
986.63	0.00
986.92	0.00
987.21	0.00
987.49	0.00
987.78	0.00
988.07	0.00
988.36	0.00
988.65	0.00
988.94	0.00
989.23	0.00
989.52	0.00
989.80	0.00
990.09	0.00
990.38	0.00
990.67	0.00
990.96	0.00
991.25	0.00
991.54	0.00
991.82	0.00
992.11	0.00
992.40	0.00
992.69	0.00
992.98	0.00
993.26	0.00
993.55	0.00
993.84	0.00
994.13	0.00
994.42	0.00
994.70	0.00
994.99	0.00
995.28	0.00
995.57	0.00
995.85	0.00
996.14	0.00
996.43	0.00
996.72	0.00
997.00	0.00
997.29	0.00
997.58	0.00
997.86	0.00
998.15	0.00
998.44	0.00
998.73	0.00
999.01	0.00
999.30	0.00
999.59	0.00
999.87	0.00
1000.16	0.00
1000.45	0.00
1000.73	0.00
1001.02	0.00
1001.30	0.00
1001.59	0.00
1001.88	0.00
1002.16	0.00
1002.45	0.00
1002.74	0.00
1003.02	0.00
1003.31	0.00
1003.59	0.00
1003.88	0.00
1004.17	0.00
1004.45	0.00
1004.74	0.00
1005.02	0.00
1005.31	0.00
1005.59	0.00
1005.88	0.00
1006.16	0.00
1006.45	0.00
1006.73	0.00
1007.02	0.00
1007.31	0.00
1007.59	0.00
1007.88	0.00
1008.16	0.00
1008.45	0.00
1008.73	0.00
1009.02	0.00
1009.30	0.00
1009.58	0.00
1009.87	0.00
1010.15	0.00
1010.44	0.00
1010.72	0.00
1011.01	0.00
1011.29	0.00
1011.58	0.00
1011.86	0.00
1012.14	0.00
1012.43	0.00
1012.71	0.00
1013.00	0.00
1013.28	0.00
1013.56	0.00
1013.85	0.00
1014.13	0.00
1014.42	0.00
1014.70	0.00
1014.98	0.00
1015.27	0.00
1015.55	0.00
1015.83	0.00
1016.12	0.00
1016.40	0.00
1016.68	0.00
1016.97	0.00
1017.25	0.00
1017.53	0.00
1017.82	0.00
1018.10	0.00
1018.38	0.00
1018.67	0.00
1018.95	0.00
1019.23	0.00
1019.51	0.00
1019.80	0.00
1020.08	0.00
1020.36	0.00
1020.64	0.00
1020.93	0.00
1021.21	0.00
1021.49	0.00
1021.77	0.00
1022.06	0.00
1022.34	0.00
1022.62	0.00
1022.90	0.00
1023.18	0.00
1023.47	0.00
1023.75	0.00
1024.03	0.00
1024.31	0.00
1024.59	0.00
1024.87	0.00
1025.16	0.00
1025.44	0.00
>>>>>End Processed Spectral Data<<<<<
