SpectraSuite Data File
++++++++++++++++++++++++++++++++++++
Date: Mon Apr 24 13:59:56 ART 2023
User: guille
Dark Spectrum Present: No
Reference Spectrum Present: No
Number of Sampled Component Spectra: 1
Spectrometers: USB2+H13674
Integration Time (usec): 2000 (USB2+H13674)
Spectra Averaged: 10 (USB2+H13674)
Boxcar Smoothing: 0 (USB2+H13674)
Correct for Electrical Dark: No (USB2+H13674)
Strobe/Lamp Enabled: No (USB2+H13674)
Correct for Detector Non-linearity: No (USB2+H13674)
Correct for Stray Light: No (USB2+H13674)
Number of Pixels in Processed Spectrum: 2048
>>>>>Begin Processed Spectral Data<<<<<
339.87	0.00
340.25	0.00
340.63	0.00
341.02	0.00
341.40	0.00
341.78	0.00
342.16	0.00
342.55	0.00
342.93	0.00
343.31	0.00
343.69	0.00
344.08	0.00
344.46	0.00
344.84	0.00
345.22	0.00
345.60	0.00
345.99	0.00
346.37	0.00
346.75	0.00
347.13	0.00
347.51	0.00
347.90	0.00
348.28	0.00
348.66	0.00
349.04	0.00
349.42	0.00
349.80	0.00
350.19	0.00
350.57	0.00
350.95	0.00
351.33	0.00
351.71	0.00
352.09	0.00
352.47	0.00
352.86	0.00
353.24	0.00
353.62	0.00
354.00	0.00
354.38	0.00
354.76	0.00
355.14	0.00
355.52	0.00
355.90	0.00
356.28	0.00
356.67	0.00
357.05	0.00
357.43	0.00
357.81	0.00
358.19	0.00
358.57	0.00
358.95	0.00
359.33	0.00
359.71	0.00
360.09	0.00
360.47	0.00
360.85	0.00
361.23	0.00
361.61	0.00
361.99	0.00
362.37	0.00
362.75	0.00
363.13	0.00
363.51	0.00
363.89	0.00
364.27	0.00
364.65	0.00
365.03	0.00
365.41	0.00
365.79	0.00
366.17	0.00
366.55	0.00
366.93	0.00
367.31	0.00
367.69	0.00
368.07	0.00
368.45	0.00
368.83	0.00
369.21	0.00
369.59	0.00
369.97	0.00
370.35	0.00
370.73	0.00
371.11	0.00
371.49	0.00
371.87	0.00
372.25	0.00
372.62	0.00
373.00	0.00
373.38	0.00
373.76	0.00
374.14	0.00
374.52	0.00
374.90	0.00
375.28	0.00
375.66	0.00
376.03	0.00
376.41	0.00
376.79	0.00
377.17	0.00
377.55	0.00
377.93	0.00
378.31	0.00
378.68	0.00
379.06	0.00
379.44	0.00
379.82	0.00
380.20	0.00
380.58	0.00
380.95	0.00
381.33	0.00
381.71	0.00
382.09	0.00
382.47	0.00
382.85	0.00
383.22	0.00
383.60	0.00
383.98	0.00
384.36	0.00
384.73	1.37
385.11	0.00
385.49	0.00
385.87	0.00
386.25	5.73
386.62	0.55
387.00	8.46
387.38	3.55
387.76	31.40
388.13	36.32
388.51	34.95
388.89	51.34
389.26	119.60
389.64	130.52
390.02	166.02
390.40	181.59
390.77	234.01
391.15	282.07
391.53	309.11
391.90	318.12
392.28	259.14
392.66	209.71
393.04	127.25
393.41	64.17
393.79	151.28
394.17	242.75
394.54	353.89
394.92	448.10
395.30	534.66
395.67	594.18
396.05	519.09
396.42	380.38
396.80	250.67
397.18	246.58
397.55	453.28
397.93	665.73
398.31	847.31
398.68	942.61
399.06	1013.06
399.44	1097.17
399.81	1160.24
400.19	1181.54
400.56	1220.04
400.94	1256.09
401.32	1341.83
401.69	1427.84
402.07	1495.56
402.44	1533.25
402.82	1584.58
403.19	1588.40
403.57	1531.88
403.95	1611.34
404.32	1691.35
404.70	1613.25
405.07	1668.68
405.45	1740.50
405.82	1770.81
406.20	1780.37
406.57	1770.54
406.95	1765.08
407.32	1893.69
407.70	1967.14
408.07	1990.63
408.45	2022.03
408.82	2256.59
409.20	2330.04
409.57	2250.58
409.95	2097.94
410.32	2043.33
410.70	2044.42
411.07	2323.49
411.45	2526.10
411.82	2593.82
412.20	2596.28
412.57	2602.01
412.95	2578.53
413.32	2549.58
413.70	2633.69
414.07	2713.97
414.45	2772.68
414.82	2713.42
415.19	2781.96
415.57	2740.73
415.94	2864.70
416.32	2915.22
416.69	3028.81
417.07	2999.32
417.44	2860.88
417.81	2805.72
418.19	2899.38
418.56	2946.07
418.94	3015.70
419.31	3095.71
419.68	3088.88
420.06	3118.92
420.43	3080.14
420.80	3255.18
421.18	3507.21
421.55	3496.57
421.93	3581.21
422.30	3480.18
422.67	3308.43
423.05	3314.98
423.42	3371.78
423.79	3594.59
424.17	3654.94
424.54	3785.74
424.91	3799.66
425.29	3789.02
425.66	3812.77
426.03	3832.71
426.40	4029.86
426.78	4062.90
427.15	3985.89
427.52	3938.11
427.90	3979.89
428.27	4338.69
428.64	4272.06
429.02	4196.97
429.39	4159.83
429.76	3952.03
430.13	3669.69
430.51	3402.63
430.88	3253.27
431.25	3590.50
431.62	4466.48
432.00	5138.76
432.37	5373.32
432.74	5037.46
433.11	5169.35
433.48	5565.83
433.86	5268.19
434.23	4787.33
434.60	4913.21
434.97	5370.32
435.35	5524.05
435.72	5620.99
436.09	5852.28
436.46	6102.40
436.83	6157.29
437.21	5984.71
437.58	5696.63
437.95	5678.61
438.32	5364.59
438.69	5211.12
439.06	5306.70
439.44	5682.16
439.81	5870.30
440.18	5933.65
440.55	5726.94
440.92	5845.72
441.29	6109.77
441.66	6317.30
442.03	6458.47
442.41	6497.52
442.78	6593.91
443.15	6560.60
443.52	6513.09
443.89	6489.06
444.26	6650.98
444.63	6875.44
445.00	6996.68
445.37	6788.88
445.74	6500.53
446.12	6403.59
446.49	6630.50
446.86	6858.78
447.23	7268.65
447.60	7527.24
447.97	7675.24
448.34	7624.72
448.71	7500.21
449.08	7629.91
449.45	7859.83
449.82	8036.23
450.19	8340.42
450.56	8883.82
450.93	8908.12
451.30	8979.11
451.67	8928.05
452.04	9008.06
452.41	9013.25
452.78	8692.40
453.15	8633.42
453.52	8615.94
453.89	9014.61
454.26	9578.76
454.63	9872.03
455.00	9718.02
455.37	9718.84
455.74	9954.49
456.11	10633.87
456.48	10650.80
456.85	11038.01
457.22	11009.06
457.59	11280.21
457.96	11303.97
458.33	11142.32
458.70	11173.99
459.07	11380.43
459.43	11517.23
459.80	11737.05
460.17	11792.48
460.54	12186.51
460.91	12325.77
461.28	12647.16
461.65	12832.03
462.02	12866.43
462.39	13010.88
462.76	13210.22
463.12	13316.99
463.49	13174.72
463.86	13104.00
464.23	13028.63
464.60	12649.62
464.97	12583.27
465.34	12907.94
465.70	13333.10
466.07	13489.56
466.44	13370.23
466.81	12909.03
467.18	12715.97
467.55	13276.30
467.91	13289.13
468.28	13362.31
468.65	13644.66
469.02	13713.47
469.39	13732.86
469.75	13780.10
470.12	13529.43
470.49	13156.42
470.86	13372.14
471.23	13555.64
471.59	14092.21
471.96	14544.67
472.33	14964.92
472.70	14863.88
473.06	14689.40
473.43	14241.30
473.80	14809.82
474.17	14933.52
474.53	15465.99
474.90	15528.52
475.27	15790.39
475.64	15416.29
476.00	15313.35
476.37	15152.24
476.74	15456.98
477.11	15600.06
477.47	16230.02
477.84	16734.64
478.21	17074.33
478.57	16722.07
478.94	16483.42
479.31	16781.60
479.67	17387.25
480.04	17690.08
480.41	17222.32
480.77	17581.95
481.14	17524.33
481.51	18062.54
481.87	18330.41
482.24	18667.37
482.61	18434.72
482.97	18300.38
483.34	18678.57
483.71	18631.05
484.07	18593.10
484.44	18733.18
484.80	18884.73
485.17	18991.50
485.54	18383.66
485.90	16770.13
486.27	15439.50
486.63	15770.72
487.00	17372.24
487.37	18408.51
487.73	18881.45
488.10	20070.91
488.46	19940.12
488.83	19529.16
489.19	19408.19
489.56	20281.44
489.93	21699.46
490.29	21939.75
490.66	21532.62
491.02	21215.59
491.39	21398.00
491.75	20896.93
492.12	20342.34
492.48	20036.78
492.85	21600.34
493.21	22229.20
493.58	22232.75
493.94	21553.64
494.31	22118.34
494.67	23017.26
495.04	23111.19
495.40	22859.43
495.77	21847.18
496.13	22331.60
496.50	22716.62
496.86	22924.42
497.23	23024.36
497.59	22783.24
497.96	22799.08
498.32	21504.76
498.69	21268.29
499.05	21667.24
499.41	22613.67
499.78	22605.21
500.14	22090.76
500.51	21209.58
500.87	21337.38
501.24	21157.70
501.60	20966.83
501.96	20914.13
502.33	21464.08
502.69	21631.74
503.06	21997.37
503.42	22297.19
503.78	21701.92
504.15	20902.39
504.51	21283.04
504.88	21964.33
505.24	21935.38
505.60	22279.17
505.97	23139.59
506.33	22896.02
506.69	22510.18
507.06	22005.29
507.42	21940.03
507.78	21760.35
508.15	21368.23
508.51	21565.11
508.87	22234.39
509.24	22771.23
509.60	22311.12
509.96	21988.63
510.33	22142.09
510.69	22253.77
511.05	22035.60
511.41	22838.95
511.78	23284.59
512.14	22769.86
512.50	22530.93
512.87	22216.91
513.23	22175.68
513.59	22285.45
513.95	21802.40
514.32	21666.14
514.68	21804.86
515.04	22260.87
515.40	22666.92
515.77	22848.23
516.13	22749.93
516.49	21644.85
516.85	19597.70
517.22	18485.24
517.58	20265.61
517.94	21582.31
518.30	20857.06
518.66	20569.53
519.03	21474.18
519.39	22546.50
519.75	23104.64
520.11	23767.91
520.47	23838.36
520.83	23538.53
521.20	24098.31
521.56	24537.67
521.92	24858.24
522.28	24608.94
522.64	24205.63
523.00	23805.59
523.37	24101.59
523.73	25227.43
524.09	25993.09
524.45	26356.54
524.81	26612.40
525.17	26225.20
525.53	26070.92
525.89	26331.42
526.26	25309.34
526.62	24082.75
526.98	23300.15
527.34	24202.35
527.70	25875.68
528.06	26613.22
528.42	27089.98
528.78	27746.70
529.14	28855.06
529.50	28561.79
529.86	27897.16
530.22	27715.02
530.59	28804.82
530.95	29814.33
531.31	29813.51
531.67	29400.37
532.03	29174.00
532.39	28324.50
532.75	27201.12
533.11	27591.05
533.47	28512.37
533.83	29016.17
534.19	29169.08
534.55	29138.77
534.91	29597.52
535.27	30005.47
535.63	30862.62
535.99	30987.68
536.35	30480.87
536.71	29608.44
537.07	28573.53
537.43	29382.62
537.79	29904.17
538.15	30395.68
538.51	30261.88
538.87	30196.89
539.22	29864.03
539.58	29369.78
539.94	29125.94
540.30	28812.74
540.66	28530.94
541.02	28565.07
541.38	29118.29
541.74	29978.99
542.10	30181.05
542.46	30030.59
542.82	29733.23
543.18	29589.87
543.53	29495.67
543.89	30243.86
544.25	30705.88
544.61	30160.03
544.97	30358.00
545.33	30188.42
545.69	30525.66
546.05	29800.13
546.40	30214.09
546.76	30016.67
547.12	30188.70
547.48	29604.07
547.84	29132.49
548.20	29294.14
548.55	29684.08
548.91	30024.86
549.27	29987.72
549.63	30231.30
549.99	29945.40
550.34	29706.47
550.70	29482.29
551.06	29483.38
551.42	29565.57
551.78	29805.86
552.13	29999.19
552.49	29627.01
552.85	29196.66
553.21	28941.08
553.57	29107.64
553.92	29556.56
554.28	29582.23
554.64	29741.97
555.00	29952.77
555.35	29754.26
555.71	29370.06
556.07	29337.56
556.42	28953.36
556.78	28266.88
557.14	28260.33
557.50	28186.88
557.85	28569.71
558.21	28478.23
558.57	27779.47
558.92	27275.12
559.28	27047.66
559.64	27631.74
559.99	27601.70
560.35	27569.21
560.71	28559.61
561.06	29106.00
561.42	28088.57
561.78	27672.97
562.13	27684.71
562.49	27838.72
562.85	28121.34
563.20	28406.42
563.56	28178.68
563.92	27648.67
564.27	27740.69
564.63	27962.15
564.98	27979.90
565.34	27545.45
565.70	26860.89
566.05	26496.89
566.41	27002.06
566.76	27495.48
567.12	27727.04
567.48	27918.73
567.83	27677.62
568.19	26917.68
568.54	26580.18
568.90	26466.58
569.25	26983.49
569.61	26836.04
569.97	26706.06
570.32	26561.06
570.68	25719.48
571.03	25392.90
571.39	25721.67
571.74	26324.32
572.10	26724.08
572.45	26897.48
572.81	26821.02
573.16	26775.96
573.52	26694.86
573.87	26502.35
574.23	26622.77
574.58	26238.03
574.94	25869.67
575.29	25289.68
575.65	25321.36
576.00	25219.23
576.36	25300.61
576.71	25365.05
577.07	25355.76
577.42	25329.00
577.78	25028.91
578.13	24495.62
578.48	24047.52
578.84	24561.97
579.19	24639.79
579.55	24595.83
579.90	24638.98
580.26	24738.37
580.61	24525.93
580.96	24357.72
581.32	24354.99
581.67	24379.84
582.03	24525.65
582.38	24530.30
582.73	24676.11
583.09	24272.25
583.44	24225.56
583.79	23913.45
584.15	24185.69
584.50	24187.88
584.86	23912.90
585.21	23421.39
585.56	22800.45
585.92	22710.88
586.27	22672.93
586.62	23130.31
586.98	23200.76
587.33	23341.93
587.68	22840.31
588.04	22790.89
588.39	22185.24
588.74	20623.05
589.09	19835.53
589.45	19318.35
589.80	20422.62
590.15	21240.44
590.51	21976.34
590.86	21882.68
591.21	21751.89
591.56	21873.94
591.92	21683.62
592.27	21878.04
592.62	21983.44
592.97	21704.92
593.33	21630.37
593.68	21899.07
594.03	21767.72
594.38	21756.53
594.74	21305.43
595.09	21330.82
595.44	21475.82
595.79	21994.09
596.14	21968.15
596.50	21929.10
596.85	22090.76
597.20	21985.63
597.55	21764.45
597.90	21808.41
598.26	21693.18
598.61	21590.23
598.96	21771.00
599.31	21949.86
599.66	22074.92
600.01	22005.01
600.37	22037.51
600.72	21687.72
601.07	21653.58
601.42	21781.38
601.77	21594.87
602.12	21538.90
602.47	21909.72
602.83	22376.93
603.18	22472.50
603.53	22643.16
603.88	22534.48
604.23	22521.10
604.58	22872.81
604.93	22936.98
605.28	22721.26
605.63	22702.42
605.98	22849.87
606.33	22799.63
606.69	22951.45
607.04	23034.19
607.39	23062.86
607.74	22952.81
608.09	22730.54
608.44	22767.95
608.79	22949.81
609.14	23168.53
609.49	23049.48
609.84	22845.23
610.19	22614.22
610.54	22770.95
610.89	23103.00
611.24	23388.90
611.59	23349.85
611.94	23077.06
612.29	22961.01
612.64	23201.57
612.99	23444.33
613.34	23037.19
613.69	22665.28
614.04	22941.07
614.39	23446.78
614.74	23577.85
615.09	23711.38
615.44	23481.46
615.79	22945.99
616.14	22641.25
616.48	22678.93
616.83	23076.51
617.18	23252.64
617.53	23646.12
617.88	24058.72
618.23	24280.99
618.58	24040.15
618.93	23914.81
619.28	23922.46
619.63	24217.91
619.98	24454.93
620.32	24446.47
620.67	24651.54
621.02	24262.15
621.37	23891.60
621.72	23965.06
622.07	24187.88
622.42	24152.38
622.76	23796.58
623.11	23762.17
623.46	23671.52
623.81	23804.77
624.16	23430.13
624.51	23590.14
624.85	23353.40
625.20	23151.06
625.55	23047.02
625.90	23161.16
626.25	23523.52
626.59	23683.26
626.94	23863.75
627.29	23379.61
627.64	22388.67
627.99	22259.78
628.33	22742.01
628.68	23127.85
629.03	23024.36
629.38	22726.72
629.72	22453.38
630.07	22331.05
630.42	22486.70
630.77	22652.45
631.11	22659.00
631.46	22368.73
631.81	21787.11
632.16	21830.80
632.50	22323.95
632.85	22920.05
633.20	22532.30
633.54	22109.32
633.89	22195.89
634.24	22104.68
634.58	22415.97
634.93	22376.11
635.28	22364.09
635.63	22016.21
635.97	21874.49
636.32	21865.75
636.67	22041.06
637.01	22121.89
637.36	22242.31
637.70	22183.60
638.05	22107.69
638.40	22060.45
638.74	22057.99
639.09	21902.07
639.44	21567.30
639.78	21130.67
640.13	21316.62
640.47	21244.26
640.82	21192.38
641.17	21044.38
641.51	20822.93
641.86	20783.06
642.20	20982.12
642.55	21336.28
642.90	21101.18
643.24	20886.55
643.59	20862.25
643.93	21028.00
644.28	20881.09
644.62	20858.70
644.97	20712.06
645.31	20668.10
645.66	20747.56
646.00	20261.24
646.35	20395.04
646.70	20260.15
647.04	20349.98
647.39	20309.84
647.73	20244.03
648.08	20392.85
648.42	20497.71
648.77	20183.41
649.11	19749.52
649.46	19068.50
649.80	19554.01
650.14	20253.32
650.49	20685.30
650.83	20689.13
651.18	20472.31
651.52	20172.49
651.87	20398.04
652.21	20491.98
652.56	20556.69
652.90	20606.12
653.25	20606.66
653.59	20554.23
653.93	20793.71
654.28	20393.95
654.62	20302.20
654.97	19909.53
655.31	19608.89
655.65	18603.48
656.00	16450.92
656.34	16334.05
656.69	17595.33
657.03	19279.03
657.37	20037.05
657.72	20406.23
658.06	20871.26
658.40	20945.81
658.75	20932.97
659.09	20821.83
659.43	20948.54
659.78	21301.88
660.12	21323.18
660.46	21481.01
660.81	21588.87
661.15	21622.45
661.49	22091.85
661.84	22013.48
662.18	22254.32
662.52	21926.37
662.87	22035.05
663.21	21876.68
663.55	22050.07
663.89	22309.48
664.24	22268.52
664.58	22704.60
664.92	22821.20
665.26	23030.36
665.61	22879.09
665.95	23084.70
666.29	23091.80
666.63	23260.83
666.98	23412.11
667.32	23565.02
667.66	23399.00
668.00	23681.62
668.35	23834.81
668.69	24176.13
669.03	24294.92
669.37	24253.14
669.71	24389.40
670.06	24314.03
670.40	24684.58
670.74	24727.45
671.08	24738.64
671.42	24768.13
671.77	24813.19
672.11	25120.11
672.45	25439.87
672.79	25676.89
673.13	25718.94
673.47	25928.65
673.81	26229.56
674.16	26268.61
674.50	26286.91
674.84	26449.93
675.18	26739.37
675.52	26964.38
675.86	27081.25
676.20	27302.70
676.54	27241.81
676.88	27417.66
677.23	27641.57
677.57	28011.84
677.91	28149.47
678.25	28069.46
678.59	28517.56
678.93	28775.33
679.27	28807.82
679.61	28817.38
679.95	29001.97
680.29	29444.60
680.63	29585.50
680.97	29560.38
681.31	29850.10
681.65	30092.58
681.99	30252.87
682.33	30416.70
682.67	30333.15
683.01	30633.79
683.35	30663.28
683.69	30372.20
684.03	30176.68
684.37	30712.43
684.71	31013.89
685.05	31348.67
685.39	31379.25
685.73	31235.62
686.07	31225.24
686.41	28400.68
686.75	23857.74
687.09	21538.08
687.43	22698.05
687.77	25874.86
688.11	27979.35
688.45	28261.42
688.79	27801.04
689.13	27489.20
689.47	27952.59
689.80	28461.58
690.14	29195.57
690.48	29783.47
690.82	30331.78
691.16	30429.27
691.50	31008.43
691.84	31685.63
692.18	32138.91
692.52	32508.36
692.85	32525.29
693.19	32824.30
693.53	32562.70
693.87	32395.59
694.21	32559.15
694.55	32588.10
694.88	33184.47
695.22	33491.12
695.56	33440.33
695.90	33635.29
696.24	34012.66
696.58	34370.65
696.91	34875.00
697.25	34672.11
697.59	34212.82
697.93	33993.55
698.27	34392.49
698.60	34328.87
698.94	34377.75
699.28	34394.13
699.62	34488.89
699.95	34042.97
700.29	33715.03
700.63	34103.05
700.97	33869.58
701.30	33980.72
701.64	33959.14
701.98	34148.10
702.32	33954.78
702.65	34032.87
702.99	34727.54
703.33	34772.32
703.66	34557.15
704.00	34682.76
704.34	35109.01
704.68	35745.52
705.01	35403.37
705.35	34895.20
705.69	34870.08
706.02	35385.62
706.36	35183.83
706.70	35227.25
707.03	35269.03
707.37	35703.47
707.71	35469.73
708.04	35308.89
708.38	34993.51
708.72	34708.43
709.05	34833.22
709.39	35451.43
709.72	35302.34
710.06	35455.25
710.40	35447.61
710.73	35455.53
711.07	35366.24
711.40	35151.61
711.74	35124.85
712.08	35060.41
712.41	35078.15
712.75	35174.27
713.08	35091.26
713.42	34866.53
713.75	35452.52
714.09	35463.72
714.43	34817.38
714.76	34305.93
715.10	34075.74
715.43	34769.87
715.77	34585.28
716.10	33860.02
716.44	33059.13
716.77	31878.14
717.11	30835.86
717.44	30174.77
717.78	29862.12
718.11	29332.37
718.45	28400.14
718.78	28245.58
719.12	28061.27
719.45	28825.84
719.79	28719.08
720.12	28829.67
720.46	28828.03
720.79	30435.55
721.12	32065.46
721.46	33051.21
721.79	33267.75
722.13	33089.99
722.46	32614.58
722.80	32440.92
723.13	31073.97
723.46	30243.58
723.80	30040.97
724.13	29936.11
724.47	30404.42
724.80	30379.30
725.13	30030.32
725.47	30409.61
725.80	31041.20
726.14	30783.15
726.47	30775.24
726.80	31399.46
727.14	30964.74
727.47	29862.66
727.80	29888.06
728.14	30963.38
728.47	31404.65
728.80	29857.75
729.14	29390.26
729.47	30446.20
729.80	31630.19
730.14	31226.06
730.47	30947.81
730.80	30781.52
731.14	31022.63
731.47	31476.73
731.80	31526.16
732.14	32196.53
732.47	32369.65
732.80	32192.70
733.13	32507.54
733.47	32978.30
733.80	33671.88
734.13	33693.18
734.46	33325.91
734.80	32908.13
735.13	33083.43
735.46	32565.16
735.79	32572.81
736.13	32776.24
736.46	32664.01
736.79	32856.25
737.12	33221.06
737.45	33192.93
737.79	33158.80
738.12	32863.07
738.45	32207.18
738.78	31929.47
739.11	32177.96
739.45	32778.42
739.78	32840.41
740.11	33090.81
740.44	32647.08
740.77	32414.70
741.10	32156.93
741.44	32273.26
741.77	32327.60
742.10	32372.38
742.43	32540.86
742.76	32814.74
743.09	33402.64
743.42	33179.28
743.75	33553.65
744.08	32860.07
744.42	32592.47
744.75	32748.39
745.08	33034.56
745.41	33220.78
745.74	32973.94
746.07	32813.92
746.40	32902.39
746.73	33202.49
747.06	33070.87
747.39	32954.00
747.72	32958.37
748.05	32892.84
748.38	32929.15
748.71	32931.88
749.04	32410.88
749.37	32083.21
749.71	32267.52
750.04	32333.60
750.37	32628.51
750.70	32309.57
751.03	31902.16
751.36	32069.28
751.69	32293.74
752.02	32378.66
752.34	31992.28
752.67	31951.59
753.00	31763.72
753.33	31999.38
753.66	32324.87
753.99	32198.16
754.32	32076.92
754.65	32082.66
754.98	31936.02
755.31	31737.24
755.64	31330.92
755.97	31712.11
756.30	31679.89
756.63	31570.12
756.96	31190.29
757.29	31178.82
757.61	31157.25
757.94	31279.86
758.27	30541.49
758.60	30302.02
758.93	29548.91
759.26	24512.82
759.59	16122.43
759.92	9432.40
760.24	5806.40
760.57	4437.81
760.90	4900.38
761.23	7391.80
761.56	12470.76
761.89	16654.63
762.22	15938.11
762.54	13233.15
762.87	11499.48
763.20	11551.64
763.53	12024.58
763.86	12863.43
764.18	13831.98
764.51	15401.27
764.84	17025.45
765.17	17904.16
765.50	19285.59
765.82	20307.66
766.15	21296.69
766.48	22553.87
766.81	23664.42
767.13	24883.64
767.46	25694.64
767.79	26331.69
768.12	26479.69
768.44	27023.08
768.77	27019.81
769.10	27043.29
769.42	26993.32
769.75	26822.93
770.08	26998.51
770.41	27631.47
770.73	27638.02
771.06	27208.49
771.39	27012.98
771.71	26801.63
772.04	26927.51
772.37	26843.96
772.69	26816.92
773.02	26779.51
773.35	26774.60
773.67	26719.98
774.00	26460.03
774.33	26228.20
774.65	25710.20
774.98	25699.28
775.30	25977.80
775.63	26230.66
775.96	25700.37
776.28	25963.60
776.61	25805.50
776.93	25708.29
777.26	25369.69
777.59	24998.60
777.91	24849.78
778.24	24731.82
778.56	24770.05
778.89	24809.91
779.22	24606.48
779.54	24636.24
779.87	24197.98
780.19	24340.25
780.52	24193.88
780.84	23992.91
781.17	24024.04
781.49	23958.50
781.82	23991.27
782.14	23709.74
782.47	23971.06
782.79	23686.81
783.12	23197.48
783.44	22930.97
783.77	22834.03
784.09	22897.93
784.42	22973.02
784.74	22795.26
785.07	22762.49
785.39	22544.86
785.72	22690.95
786.04	22674.02
786.37	22847.14
786.69	22778.05
787.01	22720.98
787.34	22484.51
787.66	22435.36
787.99	22349.89
788.31	22554.14
788.64	22564.52
788.96	22366.00
789.28	22369.55
789.61	22260.60
789.93	22210.08
790.26	22070.00
790.58	22340.61
790.90	22403.96
791.23	22155.20
791.55	21916.00
791.87	21960.23
792.20	21794.76
792.52	22101.95
792.85	21982.35
793.17	21566.48
793.49	21322.90
793.82	21397.72
794.14	21654.68
794.46	21376.15
794.78	21452.88
795.11	21656.31
795.43	21758.17
795.75	21748.61
796.08	21170.54
796.40	21419.57
796.72	21458.07
797.05	21511.04
797.37	21633.10
797.69	21767.18
798.01	21712.56
798.34	21225.15
798.66	21393.63
798.98	21338.20
799.30	21156.06
799.63	20749.75
799.95	20449.92
800.27	20409.78
800.59	20621.95
800.91	20756.57
801.24	20440.37
801.56	20611.85
801.88	20597.38
802.20	20563.24
802.53	20178.50
802.85	20175.77
803.17	19752.80
803.49	20177.41
803.81	19948.85
804.13	20039.24
804.46	19670.88
804.78	19448.60
805.10	19255.55
805.42	19508.40
805.74	19721.94
806.06	19353.58
806.38	19451.88
806.71	19453.52
807.03	19150.97
807.35	19068.77
807.67	18887.73
807.99	18791.89
808.31	18870.53
808.63	18466.12
808.95	18465.58
809.27	18419.70
809.59	18027.86
809.91	17796.30
810.24	17931.20
810.56	17760.26
810.88	17949.76
811.20	17844.09
811.52	17569.66
811.84	17363.23
812.16	17406.10
812.48	17148.05
812.80	16873.08
813.12	16706.24
813.44	16073.55
813.76	15624.91
814.08	15752.98
814.40	15460.80
814.72	15168.35
815.04	14942.53
815.36	14732.27
815.68	14573.89
816.00	14437.63
816.32	13919.09
816.64	13339.65
816.96	13629.91
817.28	14038.69
817.60	14332.23
817.92	13920.73
818.24	13317.26
818.55	13702.28
818.87	13955.95
819.19	13810.96
819.51	13762.08
819.83	13281.21
820.15	13556.19
820.47	14026.67
820.79	15058.85
821.11	14833.85
821.43	14628.23
821.75	14278.17
822.06	14073.64
822.38	13493.38
822.70	12613.03
823.02	11312.71
823.34	10980.39
823.66	12213.54
823.98	13530.25
824.29	13821.88
824.61	13931.65
824.93	14174.40
825.25	14319.67
825.57	13919.36
825.88	13720.03
826.20	13563.01
826.52	13905.16
826.84	14109.96
827.16	14035.41
827.47	13542.26
827.79	12852.51
828.11	12773.59
828.43	12872.44
828.75	12996.96
829.06	12845.41
829.38	12634.87
829.70	12765.94
830.02	12948.35
830.33	13126.66
830.65	12722.80
830.97	12718.71
831.28	12937.70
831.60	12937.97
831.92	12867.80
832.24	12432.26
832.55	12371.10
832.87	12690.58
833.19	12670.92
833.50	12439.09
833.82	12466.94
834.14	12489.88
834.45	12516.37
834.77	12860.15
835.09	12903.30
835.40	12956.54
835.72	13009.52
836.04	12687.85
836.35	12812.91
836.67	12684.85
836.99	12779.87
837.30	12664.91
837.62	12788.06
837.93	12697.68
838.25	12720.34
838.57	12690.03
838.88	12463.39
839.20	12366.45
839.51	12673.65
839.83	12638.15
840.15	12512.82
840.46	12588.73
840.78	12577.26
841.09	12496.71
841.41	12465.58
841.72	12514.73
842.04	12354.17
842.35	12335.33
842.67	12371.92
842.98	12224.19
843.30	12190.33
843.62	12118.51
843.93	11989.08
844.25	12051.89
844.56	12072.91
844.88	11902.79
845.19	11912.35
845.51	12099.40
845.82	12115.78
846.13	12159.75
846.45	11948.40
846.76	11931.19
847.08	11735.13
847.39	11713.02
847.71	11734.59
848.02	11805.04
848.34	11751.79
848.65	11677.24
848.97	11702.64
849.28	11633.55
849.59	11275.02
849.91	10648.89
850.22	9949.31
850.54	10434.26
850.85	11086.61
851.16	11199.66
851.48	11201.57
851.79	10920.59
852.10	10933.15
852.42	11150.23
852.73	11167.98
853.05	10955.54
853.36	10875.53
853.67	10668.82
853.99	9838.99
854.30	8938.15
854.61	8057.80
854.93	8551.50
855.24	9777.28
855.55	10372.28
855.87	10396.04
856.18	10474.13
856.49	10598.10
856.80	10652.99
857.12	10784.06
857.43	10649.44
857.74	10595.10
858.06	10588.00
858.37	10482.87
858.68	10397.40
858.99	10422.80
859.31	10401.22
859.62	10395.22
859.93	10296.91
860.24	10172.67
860.56	10141.27
860.87	10299.10
861.18	10170.49
861.49	9997.36
861.80	9922.55
862.12	10015.11
862.43	10007.74
862.74	10037.50
863.05	10070.00
863.36	10041.33
863.68	9980.16
863.99	9887.87
864.30	9914.35
864.61	9871.48
864.92	9700.27
865.23	9567.29
865.55	9416.56
865.86	9260.91
866.17	8706.60
866.48	7835.26
866.79	7232.88
867.10	8233.11
867.41	8946.07
867.72	9031.54
868.04	9008.33
868.35	9109.64
868.66	9111.00
868.97	9115.37
869.28	8890.92
869.59	8938.70
869.90	9057.21
870.21	9115.37
870.52	9038.10
870.83	9042.74
871.14	8904.02
871.45	8795.07
871.76	8719.43
872.07	8748.92
872.38	8781.14
872.69	8756.84
873.00	8696.77
873.31	8537.57
873.62	8433.54
873.93	8378.38
874.24	8297.00
874.55	8351.34
874.86	8341.24
875.17	8282.26
875.48	8127.16
875.79	8082.92
876.10	8161.02
876.41	8160.47
876.72	8119.51
877.03	8051.52
877.34	8051.25
877.65	7953.49
877.96	7879.22
878.27	7893.42
878.58	7911.99
878.89	7867.48
879.20	7865.84
879.51	7698.45
879.81	7624.45
880.12	7631.55
880.43	7585.95
880.74	7431.94
881.05	7160.24
881.36	6972.92
881.67	7306.06
881.98	7353.30
882.28	7322.44
882.59	7256.36
882.90	7215.95
883.21	7232.61
883.52	7253.91
883.83	7220.59
884.13	7246.26
884.44	7151.51
884.75	7195.74
885.06	7208.30
885.37	7234.24
885.68	7224.14
885.98	7184.82
886.29	7116.01
886.60	6945.07
886.91	6861.51
887.21	6917.77
887.52	7019.62
887.83	7139.77
888.14	7114.64
888.44	7020.71
888.75	7162.70
889.06	7237.25
889.37	7156.70
889.67	7144.41
889.98	7081.88
890.29	7170.62
890.60	7144.41
890.90	7153.96
891.21	7134.85
891.52	7143.04
891.82	7132.12
892.13	7142.77
892.44	7009.51
892.74	6977.84
893.05	6904.66
893.36	6782.05
893.66	6791.06
893.97	6840.76
894.28	6936.33
894.58	6830.11
894.89	6649.62
895.20	6495.34
895.50	6452.74
895.81	6370.82
896.11	6241.12
896.42	6316.75
896.73	6104.31
897.03	5792.75
897.34	5977.34
897.64	5920.27
897.95	5791.38
898.26	5988.53
898.56	5930.64
898.87	5865.38
899.17	5337.28
899.48	4735.72
899.78	4966.19
900.09	5839.44
900.39	5840.81
900.70	5267.10
901.00	5332.09
901.31	5292.77
901.62	5426.02
901.92	5388.62
902.23	5273.66
902.53	5552.73
902.84	5413.74
903.14	5394.08
903.44	5825.52
903.75	6073.18
904.05	6291.91
904.36	6350.07
904.66	6092.57
904.97	6170.67
905.27	6171.49
905.58	6152.10
905.88	5993.45
906.19	6075.64
906.49	5806.67
906.79	5385.07
907.10	5468.90
907.40	5326.63
907.71	5046.47
908.01	5110.91
908.31	5160.06
908.62	4794.16
908.92	5027.90
909.23	4818.73
909.53	4807.54
909.83	4936.42
910.14	4926.05
910.44	4790.34
910.74	4880.45
911.05	4923.04
911.35	4802.35
911.65	5045.38
911.96	5134.39
912.26	4819.55
912.56	4785.97
912.87	5006.87
913.17	4986.67
913.47	4514.54
913.78	4288.72
914.08	4158.74
914.38	4400.13
914.69	4760.84
914.99	4775.04
915.29	4733.81
915.59	4400.68
915.90	3957.22
916.20	4003.64
916.50	4346.34
916.80	4603.29
917.11	4626.22
917.41	4442.45
917.71	4230.01
918.01	3901.79
918.31	4055.80
918.62	4317.94
918.92	4285.72
919.22	4500.34
919.52	4551.95
919.82	4392.48
920.13	4264.69
920.43	4436.99
920.73	4699.41
921.03	4582.53
921.33	4387.57
921.63	4309.20
921.94	4122.15
922.24	4090.48
922.54	4190.69
922.84	4270.15
923.14	4168.30
923.44	4058.53
923.74	4015.38
924.05	3975.24
924.35	3873.39
924.65	3947.39
924.95	3864.93
925.25	3883.49
925.55	3917.90
925.85	3871.21
926.15	3806.22
926.45	3761.98
926.75	3797.75
927.05	3821.51
927.35	3899.33
927.65	3813.86
927.95	3648.66
928.25	3378.60
928.56	3204.12
928.86	3237.98
929.16	3069.77
929.46	3069.77
929.76	2970.65
930.06	2797.53
930.36	2583.17
930.66	2505.35
930.96	2490.88
931.26	2336.87
931.55	2194.60
931.85	2123.88
932.15	1777.91
932.45	1701.73
932.75	1664.59
933.05	1491.47
933.35	1640.01
933.65	1617.90
933.95	1350.29
934.25	1152.87
934.55	1119.56
934.85	936.06
935.15	1064.94
935.45	1585.13
935.75	1578.03
936.04	1312.88
936.34	1133.76
936.64	1417.47
936.94	1481.64
937.24	1342.65
937.54	1144.40
937.84	1190.55
938.14	1313.70
938.43	1245.16
938.73	1312.88
939.03	1552.91
939.33	1783.37
939.63	2121.97
939.92	2325.40
940.22	2273.25
940.52	2070.91
940.82	1974.51
941.12	1930.01
941.42	1823.51
941.71	1790.74
942.01	1827.61
942.31	1835.80
942.61	1853.00
942.90	1760.43
943.20	1454.06
943.50	1297.87
943.80	1515.50
944.09	1634.01
944.39	1390.16
944.69	1063.58
944.99	1186.46
945.28	1483.00
945.58	1665.95
945.88	1570.93
946.17	1351.11
946.47	1229.87
946.77	1265.92
947.06	1433.85
947.36	1463.62
947.66	1589.77
947.96	1511.95
948.25	1508.40
948.55	1333.91
948.84	1344.56
949.14	1508.94
949.44	1719.47
949.73	1613.80
950.03	1335.28
950.33	1130.75
950.62	1082.69
950.92	1345.38
951.21	1658.31
951.51	1877.30
951.81	1745.14
952.10	1486.28
952.40	1248.71
952.69	1126.38
952.99	1165.98
953.29	1276.29
953.58	1407.64
953.88	1565.74
954.17	1541.98
954.47	1526.97
954.76	1365.31
955.06	1278.48
955.35	1328.72
955.65	1353.02
955.94	1259.64
956.24	1218.95
956.53	1349.47
956.83	1307.70
957.12	1275.47
957.42	1298.96
957.71	1404.91
958.01	1606.43
958.30	1538.16
958.60	1455.97
958.89	1433.31
959.19	1385.52
959.48	1205.57
959.78	1145.77
960.07	1251.45
960.37	1360.12
960.66	1406.54
960.95	1448.32
961.25	1403.54
961.54	1440.40
961.84	1532.70
962.13	1507.03
962.42	1427.84
962.72	1325.99
963.01	1318.62
963.31	1389.34
963.60	1532.43
963.89	1583.76
964.19	1424.29
964.48	1359.03
964.77	1409.82
965.07	1382.24
965.36	1424.57
965.65	1473.17
965.95	1493.65
966.24	1448.32
966.53	1439.86
966.83	1353.30
967.12	1345.11
967.41	1474.54
967.71	1546.63
968.00	1636.19
968.29	1631.00
968.58	1610.25
968.88	1608.61
969.17	1658.04
969.46	1650.66
969.76	1633.46
970.05	1632.09
970.34	1616.80
970.63	1615.71
970.92	1564.65
971.22	1621.72
971.51	1572.29
971.80	1629.36
972.09	1556.46
972.39	1556.18
972.68	1543.62
972.97	1533.52
973.26	1503.76
973.55	1463.62
973.84	1407.64
974.14	1351.11
974.43	1298.14
974.72	1333.64
975.01	1368.32
975.30	1355.21
975.59	1347.84
975.89	1313.98
976.18	1285.03
976.47	1289.95
976.76	1259.36
977.05	1272.74
977.34	1353.02
977.63	1389.89
977.92	1374.05
978.21	1390.16
978.51	1324.35
978.80	1289.95
979.09	1274.66
979.38	1298.96
979.67	1272.47
979.96	1270.56
980.25	1255.81
980.54	1277.93
980.83	1274.66
981.12	1322.44
981.41	1361.76
981.70	1327.08
981.99	1338.55
982.28	1322.17
982.57	1319.98
982.86	1299.23
983.15	1258.00
983.44	1241.89
983.73	1294.59
984.02	1297.05
984.31	1286.67
984.60	1284.49
984.89	1267.83
985.18	1244.07
985.47	1248.99
985.76	1227.69
986.05	1260.46
986.34	1242.98
986.63	1250.35
986.92	1211.58
987.21	1226.87
987.49	1236.15
987.78	1201.75
988.07	1215.40
988.36	1205.02
988.65	1212.67
988.94	1228.51
989.23	1143.59
989.52	1151.78
989.80	1154.24
990.09	1149.87
990.38	1119.83
990.67	1106.18
990.96	1089.25
991.25	1101.81
991.54	1097.17
991.82	1090.61
992.11	1109.18
992.40	1074.50
992.69	1085.70
992.98	1087.88
993.26	1064.67
993.55	1010.88
993.84	1011.15
994.13	1038.18
994.42	1025.62
994.70	985.76
994.99	1000.23
995.28	1003.23
995.57	993.13
995.85	987.67
996.14	942.61
996.43	976.74
996.72	950.53
997.00	916.67
997.29	927.59
997.58	917.22
997.86	910.94
998.15	946.16
998.44	900.56
998.73	900.01
999.01	851.41
999.30	854.96
999.59	851.95
999.87	838.57
1000.16	821.92
1000.45	807.72
1000.73	782.60
1001.02	823.01
1001.30	811.00
1001.59	817.55
1001.88	784.24
1002.16	761.03
1002.45	722.25
1002.74	747.37
1003.02	735.36
1003.31	705.87
1003.59	690.30
1003.88	684.84
1004.17	674.46
1004.45	678.01
1004.74	645.25
1005.02	647.43
1005.31	637.05
1005.59	598.28
1005.88	573.70
1006.16	544.21
1006.45	558.41
1006.73	548.04
1007.02	570.43
1007.31	570.97
1007.59	544.21
1007.88	502.98
1008.16	560.05
1008.45	525.65
1008.73	499.16
1009.02	491.51
1009.30	505.17
1009.58	495.61
1009.87	479.22
1010.15	465.57
1010.44	436.63
1010.72	447.00
1011.01	439.08
1011.29	433.62
1011.58	418.60
1011.86	402.77
1012.14	404.41
1012.43	403.86
1012.71	364.27
1013.00	350.07
1013.28	342.15
1013.56	324.40
1013.85	364.27
1014.13	330.41
1014.42	334.77
1014.70	290.27
1014.98	267.60
1015.27	269.51
1015.55	294.91
1015.83	261.05
1016.12	211.35
1016.40	204.25
1016.68	225.55
1016.97	211.62
1017.25	253.13
1017.53	200.43
1017.82	208.89
1018.10	206.16
1018.38	169.84
1018.67	145.82
1018.95	185.41
1019.23	154.01
1019.51	152.37
1019.80	145.27
1020.08	137.08
1020.36	120.97
1020.64	120.97
1020.93	104.86
1021.21	94.21
1021.49	91.20
1021.77	97.48
1022.06	76.46
1022.34	66.08
1022.62	76.73
1022.90	54.89
1023.18	54.34
1023.47	34.95
1023.75	30.31
1024.03	6.01
1024.31	23.76
1024.59	10.92
1024.87	10.38
1025.16	10.38
1025.44	10.38
>>>>>End Processed Spectral Data<<<<<
