SpectraSuite Data File
++++++++++++++++++++++++++++++++++++
Date: Mon Apr 24 13:58:02 ART 2023
User: guille
Dark Spectrum Present: No
Reference Spectrum Present: No
Number of Sampled Component Spectra: 1
Spectrometers: USB2+H13674
Integration Time (usec): 2000 (USB2+H13674)
Spectra Averaged: 10 (USB2+H13674)
Boxcar Smoothing: 0 (USB2+H13674)
Correct for Electrical Dark: No (USB2+H13674)
Strobe/Lamp Enabled: No (USB2+H13674)
Correct for Detector Non-linearity: No (USB2+H13674)
Correct for Stray Light: No (USB2+H13674)
Number of Pixels in Processed Spectrum: 2048
>>>>>Begin Processed Spectral Data<<<<<
339.87	0.00
340.25	0.00
340.63	0.00
341.02	0.00
341.40	0.00
341.78	0.00
342.16	0.00
342.55	0.00
342.93	0.00
343.31	0.00
343.69	0.00
344.08	0.00
344.46	0.00
344.84	0.00
345.22	0.00
345.60	0.00
345.99	0.00
346.37	0.00
346.75	0.00
347.13	0.00
347.51	0.00
347.90	0.00
348.28	0.00
348.66	0.00
349.04	0.00
349.42	0.00
349.80	0.00
350.19	0.00
350.57	0.00
350.95	0.00
351.33	0.00
351.71	0.00
352.09	0.00
352.47	0.00
352.86	0.00
353.24	0.00
353.62	0.00
354.00	0.00
354.38	0.00
354.76	0.00
355.14	0.00
355.52	0.00
355.90	0.00
356.28	0.00
356.67	0.00
357.05	0.00
357.43	0.00
357.81	0.00
358.19	0.00
358.57	0.00
358.95	0.00
359.33	0.00
359.71	0.00
360.09	0.00
360.47	0.00
360.85	0.00
361.23	0.00
361.61	0.00
361.99	0.00
362.37	0.00
362.75	0.00
363.13	0.00
363.51	0.00
363.89	0.00
364.27	0.00
364.65	0.00
365.03	0.00
365.41	0.00
365.79	0.00
366.17	0.00
366.55	0.00
366.93	0.00
367.31	0.00
367.69	0.00
368.07	0.00
368.45	0.00
368.83	0.00
369.21	0.00
369.59	0.00
369.97	0.00
370.35	0.00
370.73	0.00
371.11	0.00
371.49	0.00
371.87	0.00
372.25	0.00
372.62	0.00
373.00	0.00
373.38	0.00
373.76	0.00
374.14	0.00
374.52	0.00
374.90	0.00
375.28	0.00
375.66	0.00
376.03	0.00
376.41	0.00
376.79	0.00
377.17	0.00
377.55	0.00
377.93	0.00
378.31	0.00
378.68	0.00
379.06	0.00
379.44	0.00
379.82	0.00
380.20	0.00
380.58	0.00
380.95	0.00
381.33	0.00
381.71	0.00
382.09	0.00
382.47	0.00
382.85	0.00
383.22	0.00
383.60	0.00
383.98	0.00
384.36	0.00
384.73	0.00
385.11	0.00
385.49	0.00
385.87	0.00
386.25	0.00
386.62	8.46
387.00	11.74
387.38	31.13
387.76	19.39
388.13	24.85
388.51	39.59
388.89	61.44
389.26	107.04
389.64	164.66
390.02	202.34
390.40	209.44
390.77	252.86
391.15	289.99
391.53	364.54
391.90	345.15
392.28	328.77
392.66	273.61
393.04	182.41
393.41	93.11
393.79	153.73
394.17	208.07
394.54	395.39
394.92	497.52
395.30	573.16
395.67	647.70
396.05	611.66
396.42	448.37
396.80	284.80
397.18	279.62
397.55	473.76
397.93	761.84
398.31	937.15
398.68	1060.03
399.06	1119.56
399.44	1180.72
399.81	1266.46
400.19	1310.97
400.56	1326.54
400.94	1398.35
401.32	1452.97
401.69	1592.77
402.07	1611.07
402.44	1689.16
402.82	1687.25
403.19	1683.43
403.57	1702.54
403.95	1767.81
404.32	1801.94
404.70	1710.46
405.07	1765.62
405.45	1874.30
405.82	1959.50
406.20	1878.94
406.57	1929.46
406.95	1956.22
407.32	2054.25
407.70	2067.36
408.07	2148.46
408.45	2261.50
408.82	2445.82
409.20	2469.30
409.57	2449.37
409.95	2189.14
410.32	2155.01
410.70	2262.05
411.07	2565.15
411.45	2764.48
411.82	2791.24
412.20	2761.75
412.57	2778.96
412.95	2738.82
413.32	2665.91
413.70	2842.58
414.07	2853.23
414.45	2938.43
414.82	2915.49
415.19	2908.39
415.57	2907.02
415.94	3002.05
416.32	3135.58
416.69	3216.40
417.07	3145.68
417.44	3002.05
417.81	3020.62
418.19	3118.10
418.56	3115.92
418.94	3191.01
419.31	3295.59
419.68	3321.26
420.06	3210.40
420.43	3290.40
420.80	3489.47
421.18	3737.13
421.55	3738.23
421.93	3761.44
422.30	3648.66
422.67	3419.02
423.05	3466.26
423.42	3661.22
423.79	3815.78
424.17	3911.89
424.54	4059.62
424.91	4030.95
425.29	4014.29
425.66	4067.81
426.03	4043.24
426.40	4396.31
426.78	4416.24
427.15	4200.79
427.52	4122.97
427.90	4255.95
428.27	4610.93
428.64	4438.90
429.02	4421.97
429.39	4446.00
429.76	4074.37
430.13	3796.66
430.51	3465.71
430.88	3495.20
431.25	3985.35
431.62	4962.36
432.00	5495.38
432.37	5450.60
432.74	5307.79
433.11	5605.43
433.48	5929.55
433.86	5364.86
434.23	5008.24
434.60	5357.49
434.97	5667.96
435.35	5824.70
435.72	5912.08
436.09	6276.89
436.46	6443.46
436.83	6459.29
437.21	6167.66
437.58	5976.79
437.95	5909.35
438.32	5557.91
438.69	5421.93
439.06	5721.21
439.44	6001.09
439.81	6196.33
440.18	6181.32
440.55	6024.30
440.92	6153.74
441.29	6419.43
441.66	6694.95
442.03	6753.93
442.41	6903.57
442.78	6923.77
443.15	6817.28
443.52	6899.47
443.89	6798.98
444.26	7009.24
444.63	7177.72
445.00	7379.79
445.37	7096.62
445.74	6740.27
446.12	6664.36
446.49	7012.25
446.86	7329.00
447.23	7677.70
447.60	7934.10
447.97	7956.22
448.34	7889.32
448.71	7918.81
449.08	8088.93
449.45	8185.87
449.82	8415.51
450.19	8806.27
450.56	9312.80
450.93	9291.77
451.30	9283.85
451.67	9309.25
452.04	9475.54
452.41	9410.83
452.78	9043.01
453.15	8922.86
453.52	9149.23
453.89	9595.96
454.26	10167.21
454.63	10286.26
455.00	10161.20
455.37	10224.55
455.74	10524.92
456.11	11226.96
456.48	11196.11
456.85	11445.96
457.22	11587.68
457.59	11895.69
457.96	11773.36
458.33	11610.07
458.70	11768.17
459.07	12063.08
459.43	12019.67
459.80	12053.80
460.17	12221.19
460.54	12809.09
460.91	12949.99
461.28	13268.93
461.65	13172.26
462.02	13557.28
462.39	13550.73
462.76	13823.79
463.12	13908.98
463.49	13585.68
463.86	13651.76
464.23	13407.91
464.60	13009.52
464.97	13136.76
465.34	13489.83
465.70	14067.63
466.07	13928.10
466.44	13705.83
466.81	13255.00
467.18	13181.55
467.55	13918.54
467.91	13975.07
468.28	13903.25
468.65	14034.59
469.02	14069.55
469.39	14389.57
469.75	14303.83
470.12	14008.65
470.49	13638.93
470.86	14089.48
471.23	14191.60
471.59	14704.96
471.96	15161.25
472.33	15630.92
472.70	15434.58
473.06	15217.77
473.43	14903.21
473.80	15292.59
474.17	15596.51
474.53	16139.09
474.90	16195.06
475.27	16198.07
475.64	16103.31
476.00	16020.03
476.37	15901.79
476.74	16107.68
477.11	16426.07
477.47	17120.75
477.84	17494.84
478.21	17681.62
478.57	17230.52
478.94	17179.45
479.31	17611.99
479.67	18168.76
480.04	18546.13
480.41	18097.22
480.77	18413.97
481.14	18438.82
481.51	19024.26
481.87	19168.17
482.24	19209.13
482.61	19231.79
482.97	19269.75
483.34	19655.04
483.71	19500.76
484.07	19371.05
484.44	19710.74
484.80	20103.95
485.17	19708.56
485.54	19055.67
485.90	16968.92
486.27	16285.99
486.63	17017.53
487.00	18242.49
487.37	19236.98
487.73	19995.82
488.10	20842.04
488.46	20726.81
488.83	20456.75
489.19	20855.15
489.56	21532.07
489.93	22618.04
490.29	22639.61
490.66	22385.12
491.02	22239.85
491.39	22266.06
491.75	21352.94
492.12	21076.88
492.48	21247.27
492.85	22734.64
493.21	23070.50
493.58	22702.42
493.94	22492.43
494.31	23155.97
494.67	23821.97
495.04	23706.47
495.40	23362.68
495.77	22723.17
496.13	23139.04
496.50	23609.80
496.86	23535.53
497.23	23779.92
497.59	23628.92
497.96	22918.95
498.32	21922.28
498.69	22181.14
499.05	22732.45
499.41	23304.25
499.78	23118.29
500.14	22517.28
500.51	21680.62
500.87	22023.58
501.24	21770.45
501.60	21604.16
501.96	21504.49
502.33	21882.96
502.69	22017.85
503.06	22622.96
503.42	22485.06
503.78	21795.30
504.15	21515.69
504.51	21883.77
504.88	22396.86
505.24	22412.15
505.60	23027.91
505.97	23651.58
506.33	23161.98
506.69	22708.97
507.06	22423.07
507.42	22450.65
507.78	21894.97
508.15	21718.03
508.51	22176.22
508.87	22707.88
509.24	23306.43
509.60	22693.13
509.96	22384.30
510.33	22598.11
510.69	22732.73
511.05	22748.29
511.41	23275.30
511.78	23740.05
512.14	23186.28
512.50	22761.67
512.87	22412.15
513.23	22478.50
513.59	22521.92
513.95	22047.07
514.32	21963.51
514.68	22338.42
515.04	22724.53
515.40	23036.10
515.77	23364.59
516.13	23066.41
516.49	21331.64
516.85	19494.48
517.22	19046.93
517.58	21044.11
517.94	21774.00
518.30	21129.03
518.66	21006.97
519.03	22092.67
519.39	23041.29
519.75	23651.85
520.11	23974.89
520.47	24004.38
520.83	24071.28
521.20	24301.20
521.56	24761.58
521.92	25334.74
522.28	24918.32
522.64	24493.98
523.00	23972.43
523.37	24991.77
523.73	25927.56
524.09	26623.87
524.45	26870.17
524.81	26528.29
525.17	26033.51
525.53	26683.39
525.89	26919.87
526.26	25327.09
526.62	23905.80
526.98	23771.18
527.34	24630.78
527.70	26297.56
528.06	26887.92
528.42	27590.24
528.78	28295.28
529.14	29246.36
529.50	28449.84
529.86	28055.53
530.22	28338.15
530.59	29136.04
530.95	29817.61
531.31	29695.27
531.67	29604.62
532.03	29153.52
532.39	28088.30
532.75	27234.16
533.11	27820.15
533.47	28903.39
533.83	29029.82
534.19	29278.31
534.55	29160.62
534.91	29778.83
535.27	30197.44
535.63	30937.44
535.99	31162.98
536.35	29937.75
536.71	28795.53
537.07	28521.38
537.43	29560.65
537.79	30094.76
538.15	30288.09
538.51	30455.75
538.87	30217.92
539.22	29730.23
539.58	29031.46
539.94	29200.48
540.30	28622.41
540.66	28418.43
541.02	28666.37
541.38	29531.16
541.74	30095.58
542.10	30022.13
542.46	29964.24
542.82	29563.38
543.18	29244.99
543.53	29715.75
543.89	30315.94
544.25	30580.82
544.61	30055.44
544.97	30306.11
545.33	30096.13
545.69	30486.61
546.05	29753.44
546.40	29984.99
546.76	29980.90
547.12	29940.48
547.48	29368.14
547.84	28979.85
548.20	29413.20
548.55	29723.67
548.91	30267.34
549.27	29974.34
549.63	30084.39
549.99	29733.50
550.34	29513.96
550.70	29369.51
551.06	29322.82
551.42	29390.26
551.78	29840.27
552.13	29909.90
552.49	29079.52
552.85	29111.74
553.21	29057.13
553.57	29174.00
553.92	29380.71
554.28	29581.95
554.64	29722.58
555.00	29843.55
555.35	29666.88
555.71	29318.99
556.07	29025.72
556.42	28421.44
556.78	27957.78
557.14	28099.50
557.50	28266.88
557.85	28593.47
558.21	28442.19
558.57	27270.75
558.92	27085.07
559.28	27181.73
559.64	27462.71
559.99	27253.55
560.35	27946.04
560.71	28751.02
561.06	28623.78
561.42	27561.56
561.78	27554.19
562.13	27547.36
562.49	27980.99
562.85	28169.13
563.20	28074.10
563.56	27545.45
563.92	27523.88
564.27	27923.92
564.63	27788.48
564.98	27610.99
565.34	27182.83
565.70	26733.91
566.05	26457.03
566.41	26827.03
566.76	27354.31
567.12	27549.28
567.48	27402.09
567.83	27126.85
568.19	26592.46
568.54	26383.57
568.90	26374.29
569.25	26724.08
569.61	26565.70
569.97	26512.46
570.32	26039.24
570.68	25261.28
571.03	25134.04
571.39	25423.21
571.74	26204.72
572.10	26414.43
572.45	26766.13
572.81	26443.10
573.16	26577.17
573.52	26271.07
573.87	26365.55
574.23	26118.70
574.58	25845.09
574.94	25261.83
575.29	24982.76
575.65	24938.80
576.00	24784.52
576.36	25077.51
576.71	25097.99
577.07	25088.71
577.42	25047.75
577.78	24364.27
578.13	24185.15
578.48	23900.34
578.84	24176.68
579.19	24194.98
579.55	24405.51
579.90	24200.98
580.26	24295.46
580.61	24130.81
580.96	24098.04
581.32	24021.31
581.67	24064.18
582.03	24151.83
582.38	24182.14
582.73	24248.50
583.09	23808.87
583.44	23775.28
583.79	23636.84
584.15	23829.89
584.50	23751.52
584.86	23517.78
585.21	22890.01
585.56	22305.93
585.92	22302.93
586.27	22350.98
586.62	22862.16
586.98	22847.96
587.33	22752.11
587.68	22477.14
588.04	22378.56
588.39	21644.30
588.74	20020.94
589.09	19509.77
589.45	19023.99
589.80	20177.95
590.15	21089.44
590.51	21617.54
590.86	21730.31
591.21	21507.49
591.56	21483.19
591.92	21290.96
592.27	21549.82
592.62	21641.30
592.97	21496.57
593.33	21402.09
593.68	21665.05
594.03	21553.10
594.38	21263.65
594.74	21117.29
595.09	21242.90
595.44	21335.47
595.79	21612.62
596.14	21730.31
596.50	21653.86
596.85	21735.78
597.20	21722.67
597.55	21554.19
597.90	21410.01
598.26	21238.26
598.61	21374.79
598.96	21455.61
599.31	21828.34
599.66	21742.87
600.01	21733.04
600.37	21668.87
600.72	21487.56
601.07	21325.64
601.42	21465.17
601.77	21385.71
602.12	21359.77
602.47	21716.39
602.83	22028.77
603.18	22069.18
603.53	22310.84
603.88	22405.87
604.23	22407.24
604.58	22619.41
604.93	22506.08
605.28	22320.13
605.63	22657.09
605.98	22582.81
606.33	22299.10
606.69	22620.22
607.04	22720.17
607.39	22626.23
607.74	22567.25
608.09	22429.90
608.44	22592.37
608.79	22515.91
609.14	22917.86
609.49	22722.62
609.84	22415.97
610.19	22506.90
610.54	22455.02
610.89	22960.19
611.24	23054.67
611.59	22868.17
611.94	22740.92
612.29	22803.45
612.64	22859.97
612.99	23095.35
613.34	22547.32
613.69	22537.76
614.04	22716.34
614.39	23064.22
614.74	23275.57
615.09	23224.51
615.44	23173.45
615.79	22615.31
616.14	22342.79
616.48	22264.15
616.83	22639.61
617.18	23011.52
617.53	23473.82
617.88	23698.00
618.23	23858.56
618.58	23722.03
618.93	23605.43
619.28	23680.80
619.63	23892.97
619.98	23979.53
620.32	24033.05
620.67	24237.30
621.02	23925.19
621.37	23852.83
621.72	23686.81
622.07	23847.91
622.42	23772.28
622.76	23401.73
623.11	23419.48
623.46	23399.00
623.81	23493.48
624.16	23219.87
624.51	23091.26
624.85	22882.09
625.20	22830.76
625.55	22565.34
625.90	22874.72
626.25	23150.78
626.59	23494.57
626.94	23532.80
627.29	22890.56
627.64	22101.68
627.99	22126.80
628.33	22393.31
628.68	22598.11
629.03	22645.07
629.38	22426.62
629.72	22141.82
630.07	21903.16
630.42	22254.59
630.77	22761.67
631.11	22027.13
631.46	21283.86
631.81	21564.29
632.16	22313.30
632.50	22384.84
632.85	22489.70
633.20	22286.00
633.54	21882.68
633.89	22001.19
634.24	21804.59
634.58	22219.10
634.93	22110.42
635.28	22231.38
635.63	21776.73
635.97	21710.38
636.32	21742.33
636.67	21715.02
637.01	21933.75
637.36	22023.31
637.70	22063.45
638.05	21915.45
638.40	21735.23
638.74	22080.93
639.09	21636.11
639.44	21373.97
639.78	21051.21
640.13	21171.90
640.47	21138.86
640.82	20893.92
641.17	20704.14
641.51	20714.79
641.86	20905.12
642.20	21029.36
642.55	21192.93
642.90	20940.34
643.24	20940.62
643.59	20647.89
643.93	20971.75
644.28	20973.38
644.62	20722.71
644.97	20651.44
645.31	20470.95
645.66	20639.43
646.00	20240.48
646.35	20373.19
646.70	20335.24
647.04	20274.34
647.39	20177.41
647.73	20193.79
648.08	20309.30
648.42	20433.81
648.77	20115.15
649.11	19563.84
649.46	19052.94
649.80	19486.01
650.14	20405.14
650.49	20491.16
650.83	20628.23
651.18	20368.00
651.52	20020.12
651.87	20234.48
652.21	20354.35
652.56	20498.53
652.90	20366.91
653.25	20455.66
653.59	20639.43
653.93	20614.31
654.28	20218.09
654.62	20175.77
654.97	19815.87
655.31	19520.42
655.65	18503.26
656.00	16186.05
656.34	16304.56
656.69	17512.59
657.03	19292.41
657.37	20066.27
657.72	20334.15
658.06	20589.46
658.40	20968.20
658.75	20861.70
659.09	20804.63
659.43	20721.07
659.78	21030.45
660.12	21174.90
660.46	21449.06
660.81	21374.51
661.15	21516.78
661.49	21848.82
661.84	21835.44
662.18	21979.89
662.52	21911.90
662.87	21953.13
663.21	21766.08
663.55	21915.18
663.89	22056.62
664.24	22147.01
664.58	22562.61
664.92	22575.17
665.26	22782.97
665.61	22866.80
665.95	22863.80
666.29	22890.01
666.63	22997.05
666.98	23235.16
667.32	23318.17
667.66	23158.16
668.00	23369.51
668.35	23809.96
668.69	24137.91
669.03	23979.53
669.37	24051.34
669.71	24232.11
670.06	24133.81
670.40	24436.91
670.74	24559.24
671.08	24445.92
671.42	24638.70
671.77	24621.50
672.11	24644.71
672.45	25070.96
672.79	25418.02
673.13	25554.83
673.47	25841.54
673.81	26053.44
674.16	26068.73
674.50	26186.97
674.84	26164.03
675.18	26344.52
675.52	26485.15
675.86	26941.98
676.20	27095.99
676.54	27060.22
676.88	27166.17
677.23	27394.18
677.57	27764.99
677.91	27952.59
678.25	28066.73
678.59	28390.85
678.93	28448.47
679.27	28566.16
679.61	28760.03
679.95	28869.26
680.29	29036.65
680.63	29046.48
680.97	29480.92
681.31	29521.33
681.65	29845.19
681.99	30239.21
682.33	30166.85
682.67	30283.45
683.01	30421.62
683.35	30638.98
683.69	30341.61
684.03	30088.21
684.37	30466.13
684.71	30827.94
685.05	31015.26
685.39	31085.98
685.73	31297.33
686.07	31246.00
686.41	27851.83
686.75	23562.29
687.09	21423.94
687.43	22598.38
687.77	25878.68
688.11	27924.74
688.45	28231.11
688.79	27562.11
689.13	27346.12
689.47	27806.50
689.80	28343.61
690.14	28887.83
690.48	29624.55
690.82	30215.18
691.16	30379.02
691.50	31215.41
691.84	31790.76
692.18	31898.89
692.52	32463.31
692.85	32059.72
693.19	32224.65
693.53	32555.60
693.87	32255.23
694.21	32384.94
694.55	32419.07
694.88	33135.59
695.22	33209.32
695.56	32991.14
695.90	33530.98
696.24	33918.46
696.58	34410.24
696.91	34488.61
697.25	34475.23
697.59	34165.58
697.93	34083.39
698.27	34282.18
698.60	34043.52
698.94	34064.00
699.28	34406.69
699.62	34123.53
699.95	33836.27
700.29	33402.64
700.63	33859.20
700.97	33746.43
701.30	33768.82
701.64	33957.23
701.98	33740.42
702.32	33793.67
702.65	33911.36
702.99	34515.37
703.33	34533.67
703.66	34453.93
704.00	34909.13
704.34	34973.57
704.68	35593.15
705.01	35035.56
705.35	34794.44
705.69	34901.76
706.02	35069.42
706.36	35051.67
706.70	35152.97
707.03	35141.78
707.37	35481.74
707.71	35430.13
708.04	35157.34
708.38	34971.93
708.72	34446.83
709.05	34926.61
709.39	35137.41
709.72	35032.55
710.06	35376.61
710.40	35255.37
710.73	35150.52
711.07	35230.80
711.40	34893.02
711.74	34899.03
712.08	35131.95
712.41	35060.41
712.75	35069.69
713.08	35021.63
713.42	35015.90
713.75	35298.52
714.09	35221.24
714.43	34819.84
714.76	34133.90
715.10	34214.73
715.43	34674.57
715.77	34878.27
716.10	33849.37
716.44	32596.84
716.77	31571.21
717.11	30643.07
717.44	30132.99
717.78	29920.00
718.11	29297.15
718.45	28159.84
718.78	28101.41
719.12	28031.23
719.45	28920.05
719.79	28432.91
720.12	28773.69
720.46	28566.43
720.79	30496.44
721.12	32065.46
721.46	33120.57
721.79	33092.72
722.13	32913.04
722.46	32726.54
722.80	32399.41
723.13	30842.41
723.46	30558.97
723.80	29792.76
724.13	29935.02
724.47	30375.47
724.80	30382.57
725.13	29921.92
725.47	30592.56
725.80	30985.22
726.14	30519.65
726.47	30839.95
726.80	31181.55
727.14	30727.72
727.47	29636.84
727.80	30114.15
728.14	31058.40
728.47	31378.16
728.80	29687.63
729.14	29553.55
729.47	30678.03
729.80	31300.61
730.14	31057.31
730.47	31011.16
730.80	30623.14
731.14	31112.20
731.47	31307.98
731.80	31511.69
732.14	32182.33
732.47	32467.13
732.80	32445.29
733.13	32544.68
733.47	33009.43
733.80	33413.02
734.13	33520.33
734.46	33565.66
734.80	32933.80
735.13	32840.41
735.46	32690.50
735.79	32639.98
736.13	32882.19
736.46	32877.27
736.79	33069.51
737.12	33230.34
737.45	33101.46
737.79	33080.70
738.12	33093.54
738.45	32381.94
738.78	31904.35
739.11	32374.84
739.45	32739.37
739.78	32926.15
740.11	33077.70
740.44	32773.78
740.77	32382.48
741.10	32415.25
741.44	32246.50
741.77	32487.61
742.10	32269.71
742.43	32673.84
742.76	32895.57
743.09	33538.36
743.42	33220.24
743.75	33241.26
744.08	33009.98
744.42	32667.56
744.75	32652.81
745.08	32995.23
745.41	33191.57
745.74	33189.93
746.07	32960.28
746.40	33089.71
746.73	33077.43
747.06	33073.06
747.39	33060.22
747.72	32935.43
748.05	32873.45
748.38	32930.52
748.71	33090.81
749.04	32604.75
749.37	32216.19
749.71	32354.08
750.04	32413.06
750.37	32743.74
750.70	32237.49
751.03	31886.87
751.36	32229.02
751.69	32289.91
752.02	32316.40
752.34	31869.94
752.67	31969.34
753.00	31969.34
753.33	32381.12
753.66	32262.61
753.99	32265.34
754.32	32362.82
754.65	32062.73
754.98	32011.66
755.31	31711.29
755.64	31659.41
755.97	31794.58
756.30	31631.01
756.63	31513.05
756.96	31273.58
757.29	31153.43
757.61	31209.41
757.94	31284.77
758.27	30684.31
758.60	30309.12
758.93	29579.50
759.26	23595.60
759.59	15674.88
759.92	8965.46
760.24	5500.30
760.57	4397.94
760.90	5012.34
761.23	7692.44
761.56	13302.79
761.89	16757.85
762.22	15657.40
762.54	13051.57
762.87	11497.30
763.20	11480.37
763.53	11967.24
763.86	12937.70
764.18	14281.99
764.51	15668.87
764.84	16762.76
765.17	18358.81
765.50	19525.61
765.82	20247.31
766.15	21986.45
766.48	22501.72
766.81	24028.41
767.13	25039.83
767.46	25913.90
767.79	26579.08
768.12	26591.37
768.44	27327.00
768.77	27028.00
769.10	26962.46
769.42	27028.55
769.75	27026.36
770.08	27165.62
770.41	27652.49
770.73	27674.34
771.06	27398.55
771.39	26955.64
771.71	26832.21
772.04	27123.57
772.37	26967.93
772.69	26855.70
773.02	26805.18
773.35	26737.46
773.67	26756.30
774.00	26680.39
774.33	26273.80
774.65	25793.21
774.98	25880.86
775.30	26116.52
775.63	26160.21
775.96	25875.40
776.28	26025.59
776.61	25748.43
776.93	25876.77
777.26	25439.87
777.59	24986.58
777.91	24779.06
778.24	24999.96
778.56	24802.81
778.89	24903.85
779.22	24618.22
779.54	24843.23
779.87	24295.19
780.19	24401.68
780.52	24337.79
780.84	24050.80
781.17	24084.66
781.49	23921.91
781.82	23983.35
782.14	23989.09
782.47	23802.04
782.79	23769.54
783.12	23154.61
783.44	23077.33
783.77	22940.25
784.09	22964.28
784.42	23087.16
784.74	22913.49
785.07	22676.75
785.39	22465.67
785.72	22872.81
786.04	22658.45
786.37	22349.35
786.69	22412.70
787.01	22201.62
787.34	21872.58
787.66	21921.18
787.99	21997.92
788.31	22062.90
788.64	21964.60
788.96	22037.78
789.28	21759.26
789.61	21768.82
789.93	21892.51
790.26	21774.82
790.58	22081.75
790.90	21857.56
791.23	21843.91
791.55	21660.96
791.87	21647.30
792.20	21519.24
792.52	21754.89
792.85	21507.49
793.17	21324.00
793.49	21124.11
793.82	21363.59
794.14	21391.44
794.46	21037.28
794.78	21293.96
795.11	21457.80
795.43	21631.47
795.75	21461.35
796.08	21178.45
796.40	21410.56
796.72	21416.02
797.05	21416.56
797.37	21512.41
797.69	21601.70
798.01	21568.11
798.34	21259.28
798.66	21448.24
798.98	21313.07
799.30	20837.95
799.63	20767.77
799.95	20467.40
800.27	20747.56
800.59	20553.69
800.91	20801.08
801.24	20657.72
801.56	20766.13
801.88	20587.27
802.20	20675.75
802.53	20225.19
802.85	20290.18
803.17	20085.66
803.49	20188.60
803.81	20120.88
804.13	19998.01
804.46	19610.26
804.78	19506.49
805.10	19738.87
805.42	19622.82
805.74	19975.61
806.06	19654.77
806.38	19590.32
806.71	19538.44
807.03	19211.31
807.35	19130.76
807.67	19124.75
807.99	19112.46
808.31	18801.17
808.63	18613.58
808.95	18683.21
809.27	18447.56
809.59	18167.67
809.91	17921.91
810.24	18117.97
810.56	17940.75
810.88	18086.84
811.20	17978.44
811.52	17792.48
811.84	17616.35
812.16	17548.09
812.48	17328.82
812.80	17034.46
813.12	16622.13
813.44	16004.47
813.76	15940.30
814.08	15633.37
814.40	15646.75
814.72	14952.90
815.04	15015.98
815.36	14624.41
815.68	14808.18
816.00	14127.98
816.32	13502.67
816.64	13780.92
816.96	13618.99
817.28	14757.94
817.60	13968.79
817.92	13756.07
818.24	13649.03
818.55	13868.03
818.87	13873.49
819.19	14006.47
819.51	13632.92
819.83	13343.20
820.15	13890.42
820.47	14483.78
820.79	15210.40
821.11	14827.84
821.43	14848.32
821.75	14357.08
822.06	14090.02
822.38	13453.52
822.70	11865.11
823.02	11035.27
823.34	11539.62
823.66	12897.83
823.98	13818.60
824.29	13821.60
824.61	14314.21
824.93	14289.91
825.25	14247.31
825.57	13640.02
825.88	13598.79
826.20	13609.44
826.52	14133.72
826.84	14355.44
827.16	13834.44
827.47	13079.15
827.79	12951.35
828.11	12829.57
828.43	13227.97
828.75	12793.52
829.06	12836.67
829.38	12678.02
829.70	12932.51
830.02	12924.59
830.33	12992.59
830.65	12638.97
830.97	13048.56
831.28	12990.13
831.60	12869.98
831.92	12713.24
832.24	12369.46
832.55	12699.32
832.87	12542.03
833.19	12518.28
833.50	12375.19
833.82	12388.85
834.14	12632.14
834.45	12635.69
834.77	12726.35
835.09	12975.38
835.40	12917.77
835.72	12835.03
836.04	12771.13
836.35	12841.58
836.67	12608.93
836.99	12844.86
837.30	12739.46
837.62	12883.36
837.93	12687.30
838.25	12674.74
838.57	12605.11
838.88	12483.05
839.20	12655.35
839.51	12686.21
839.83	12685.12
840.15	12514.73
840.46	12601.83
840.78	12385.30
841.09	12472.68
841.41	12459.57
841.72	12325.50
842.04	12356.35
842.35	12178.31
842.67	12252.86
842.98	12270.34
843.30	12170.40
843.62	12003.01
843.93	11990.17
844.25	12040.96
844.56	11795.75
844.88	11898.43
845.19	11932.83
845.51	12119.06
845.82	11992.36
846.13	12052.43
846.45	11926.28
846.76	11770.63
847.08	11616.35
847.39	11627.82
847.71	11743.33
848.02	11674.24
848.34	11636.56
848.65	11588.77
848.97	11627.82
849.28	11491.84
849.59	10758.66
849.91	10031.77
850.22	10283.53
850.54	10687.67
850.85	11199.39
851.16	11149.14
851.48	10929.60
851.79	10843.31
852.10	10914.58
852.42	11149.96
852.73	10998.96
853.05	10947.62
853.36	10774.77
853.67	10287.90
853.99	9093.80
854.30	7999.37
854.61	8422.34
854.93	9346.66
855.24	10138.54
855.55	10340.06
855.87	10418.70
856.18	10482.32
856.49	10576.26
856.80	10684.12
857.12	10725.90
857.43	10552.77
857.74	10592.09
858.06	10522.46
858.37	10395.49
858.68	10461.57
858.99	10393.30
859.31	10404.77
859.62	10253.22
859.93	10057.98
860.24	10181.14
860.56	10137.99
860.87	10144.82
861.18	10000.37
861.49	9907.25
861.80	10013.20
862.12	10076.01
862.43	9914.90
862.74	9949.85
863.05	9925.28
863.36	9929.37
863.68	9886.23
863.99	9828.07
864.30	9883.50
864.61	9764.99
864.92	9530.15
865.23	9529.61
865.55	9317.98
865.86	8741.55
866.17	7688.35
866.48	7399.17
866.79	8020.66
867.10	8744.01
867.41	8967.37
867.72	9016.52
868.04	9019.25
868.35	9095.98
868.66	9033.18
868.97	8815.55
869.28	8842.04
869.59	8985.94
869.90	8939.79
870.21	8966.83
870.52	8927.51
870.83	8905.11
871.14	8637.79
871.45	8682.57
871.76	8629.05
872.07	8666.73
872.38	8722.98
872.69	8632.87
873.00	8513.82
873.31	8463.57
873.62	8342.06
873.93	8344.79
874.24	8320.76
874.55	8198.43
874.86	8217.27
875.17	8142.72
875.48	8105.86
875.79	8173.58
876.10	8083.47
876.41	8129.62
876.72	8046.33
877.03	7946.39
877.34	7866.93
877.65	7836.07
877.96	7847.54
878.27	7850.27
878.58	7808.77
878.89	7745.14
879.20	7607.52
879.51	7482.19
879.81	7507.85
880.12	7572.30
880.43	7371.32
880.74	7084.06
881.05	7043.65
881.36	7282.30
881.67	7518.23
881.98	7516.05
882.28	7431.67
882.59	7237.52
882.90	7411.19
883.21	7371.05
883.52	7393.99
883.83	7289.95
884.13	7364.77
884.44	7381.70
884.75	7400.81
885.06	7367.50
885.37	7327.36
885.68	7397.26
885.98	7247.08
886.29	7164.89
886.60	7056.48
886.91	7054.84
887.21	7234.79
887.52	7324.90
887.83	7342.92
888.14	7292.95
888.44	7344.29
888.75	7453.51
889.06	7351.39
889.37	7332.55
889.67	7368.32
889.98	7325.99
890.29	7319.44
890.60	7376.24
890.90	7358.49
891.21	7325.99
891.52	7325.72
891.82	7276.84
892.13	7241.34
892.44	7135.40
892.74	7131.30
893.05	6969.10
893.36	7002.96
893.66	7063.58
893.97	7138.13
894.28	6979.48
894.58	6891.55
894.89	6664.91
895.20	6553.23
895.50	6442.64
895.81	6504.62
896.11	6422.43
896.42	6069.63
896.73	5914.53
897.03	6031.40
897.34	6007.65
897.64	5952.22
897.95	6184.59
898.26	6168.48
898.56	5779.64
898.87	5115.28
899.17	4746.92
899.48	5433.67
899.78	5941.84
900.09	5733.22
900.39	5349.29
900.70	5398.45
901.00	5368.41
901.31	5364.31
901.62	5395.17
901.92	5397.35
902.23	5466.44
902.53	5437.49
902.84	5513.13
903.14	5833.16
903.44	6253.40
903.75	6374.92
904.05	6380.92
904.36	6277.43
904.66	6221.73
904.97	6238.11
905.27	6067.99
905.58	6095.85
905.88	6044.78
906.19	5701.27
906.49	5406.36
906.79	5384.25
907.10	5145.04
907.40	5015.89
907.71	5090.43
908.01	5062.85
908.31	4834.30
908.62	4973.83
908.92	4848.50
909.23	4761.94
909.53	4862.97
909.83	4818.46
910.14	4907.21
910.44	4802.62
910.74	4855.87
911.05	4840.31
911.35	5127.84
911.65	5000.05
911.96	4708.96
912.26	4858.05
912.56	5184.64
912.87	4687.66
913.17	4302.65
913.47	4132.53
913.78	4205.71
914.08	4433.44
914.38	4872.80
914.69	4833.75
914.99	4541.30
915.29	4060.71
915.59	3827.52
915.90	4093.21
916.20	4500.89
916.50	4577.07
916.80	4545.13
917.11	4247.49
917.41	3985.62
917.71	3754.88
918.01	4138.26
918.31	4387.02
918.62	4383.75
918.92	4447.92
919.22	4513.18
919.52	4312.48
919.82	4367.91
920.13	4494.61
920.43	4565.33
920.73	4516.73
921.03	4307.83
921.33	4176.76
921.63	4098.40
921.94	4120.24
922.24	4213.90
922.54	4214.72
922.84	4095.94
923.14	3990.54
923.44	4005.28
923.74	3918.99
924.05	3842.81
924.35	3875.30
924.65	3890.87
924.95	3875.58
925.25	3885.68
925.55	3849.09
925.85	3773.18
926.15	3744.23
926.45	3855.92
926.75	4014.02
927.05	3973.33
927.35	3733.04
927.65	3519.50
927.95	3273.20
928.25	3083.42
928.56	3129.57
928.86	3055.02
929.16	2979.93
929.46	2907.57
929.76	2636.96
930.06	2501.80
930.36	2479.68
930.66	2449.92
930.96	2261.23
931.26	2067.08
931.55	1996.36
931.85	1602.33
932.15	1622.26
932.45	1527.51
932.75	1507.30
933.05	1668.68
933.35	1479.18
933.65	1075.05
933.95	989.31
934.25	933.33
934.55	973.19
934.85	1391.53
935.15	1715.38
935.45	1366.68
935.75	1067.13
936.04	1329.27
936.34	1538.16
936.64	1402.18
936.94	1078.87
937.24	1073.95
937.54	1267.28
937.84	1277.39
938.14	1121.74
938.43	1401.36
938.73	1762.62
939.03	2084.29
939.33	2303.28
939.63	2296.18
939.92	2103.13
940.22	1890.96
940.52	1890.14
940.82	1866.66
941.12	1745.96
941.42	1762.07
941.71	1865.56
942.01	1863.11
942.31	1787.19
942.61	1510.31
942.90	1188.91
943.20	1404.63
943.50	1768.35
943.80	1397.53
944.09	964.73
944.39	1017.98
944.69	1465.25
944.99	1747.05
945.28	1602.60
945.58	1289.13
945.88	1154.51
946.17	1224.14
946.47	1405.45
946.77	1493.92
947.06	1485.46
947.36	1509.49
947.66	1401.36
947.96	1330.91
948.25	1242.43
948.55	1538.43
948.84	1776.00
949.14	1689.44
949.44	1264.83
949.73	1003.23
950.03	1002.69
950.33	1276.84
950.62	1724.66
950.92	1933.01
951.21	1821.87
951.51	1487.92
951.81	1126.11
952.10	1044.46
952.40	1117.10
952.69	1272.47
952.99	1396.44
953.29	1574.75
953.58	1557.55
953.88	1503.76
954.17	1381.97
954.47	1245.17
954.76	1278.75
955.06	1391.53
955.35	1280.39
955.65	1170.35
955.94	1346.47
956.24	1349.47
956.53	1191.10
956.83	1235.88
957.12	1427.02
957.42	1676.60
957.71	1650.12
958.01	1444.23
958.30	1366.68
958.60	1399.72
958.89	1190.55
959.19	1058.12
959.48	1178.26
959.78	1332.27
960.07	1461.70
960.37	1419.92
960.66	1398.63
960.95	1463.62
961.25	1539.25
961.54	1500.21
961.84	1392.89
962.13	1297.05
962.42	1246.26
962.72	1383.88
963.01	1562.19
963.31	1639.74
963.60	1425.11
963.89	1289.40
964.19	1393.44
964.48	1402.18
964.77	1363.95
965.07	1465.25
965.36	1557.00
965.65	1462.52
965.95	1377.33
966.24	1304.97
966.53	1288.31
966.83	1422.93
967.12	1515.50
967.41	1623.36
967.71	1691.62
968.00	1627.18
968.29	1581.58
968.58	1625.54
968.88	1675.51
969.17	1646.29
969.46	1593.32
969.76	1579.94
970.05	1531.06
970.34	1531.88
970.63	1614.62
970.92	1626.36
971.22	1586.77
971.51	1554.82
971.80	1523.69
972.09	1511.67
972.39	1496.38
972.68	1438.77
972.97	1449.42
973.26	1368.86
973.55	1270.01
973.84	1231.78
974.14	1275.75
974.43	1282.57
974.72	1335.82
975.01	1254.18
975.30	1299.23
975.59	1208.30
975.89	1181.27
976.18	1191.92
976.47	1187.00
976.76	1215.13
977.05	1272.47
977.34	1284.21
977.63	1280.66
977.92	1184.00
978.21	1160.79
978.51	1145.77
978.80	1173.08
979.09	1156.15
979.38	1105.63
979.67	1134.85
979.96	1075.59
980.25	1096.89
980.54	1098.26
980.83	1114.37
981.12	1151.50
981.41	1140.58
981.70	1111.36
981.99	1109.45
982.28	1092.25
982.57	1023.71
982.86	1037.64
983.15	997.22
983.44	998.32
983.73	989.58
984.02	988.76
984.31	997.77
984.60	975.38
984.89	951.62
985.18	921.04
985.47	929.78
985.76	921.04
986.05	899.74
986.34	894.01
986.63	858.78
986.92	836.66
987.21	830.38
987.49	801.17
987.78	814.27
988.07	794.07
988.36	791.61
988.65	743.28
988.94	740.82
989.23	742.46
989.52	721.43
989.80	676.10
990.09	669.28
990.38	671.73
990.67	666.00
990.96	650.16
991.25	638.97
991.54	615.21
991.82	596.10
992.11	552.13
992.40	558.41
992.69	552.68
992.98	552.95
993.26	511.45
993.55	498.07
993.84	480.86
994.13	469.94
994.42	481.41
994.70	422.70
994.99	403.04
995.28	394.58
995.57	385.29
995.85	360.99
996.14	324.94
996.43	350.34
996.72	349.25
997.00	319.21
997.29	309.65
997.58	278.52
997.86	257.50
998.15	285.35
998.44	266.24
998.73	251.76
999.01	217.36
999.30	230.46
999.59	191.42
999.87	211.35
1000.16	161.38
1000.45	165.20
1000.73	178.86
1001.02	134.62
1001.30	144.45
1001.59	122.88
1001.88	131.62
1002.16	132.16
1002.45	94.75
1002.74	95.84
1003.02	54.61
1003.31	79.19
1003.59	42.32
1003.88	18.57
1004.17	55.98
1004.45	19.93
1004.74	39.59
1005.02	21.30
1005.31	33.86
1005.59	19.11
1005.88	8.46
1006.16	3.28
1006.45	5.73
1006.73	6.83
1007.02	5.19
1007.31	0.00
1007.59	0.00
1007.88	0.00
1008.16	0.00
1008.45	0.00
1008.73	3.28
1009.02	1.64
1009.30	1.64
1009.58	0.00
1009.87	0.00
1010.15	0.55
1010.44	0.00
1010.72	0.00
1011.01	0.00
1011.29	0.00
1011.58	0.00
1011.86	0.00
1012.14	0.00
1012.43	0.00
1012.71	0.00
1013.00	0.00
1013.28	0.00
1013.56	0.00
1013.85	0.00
1014.13	0.00
1014.42	0.00
1014.70	0.00
1014.98	0.00
1015.27	0.00
1015.55	0.00
1015.83	0.00
1016.12	0.00
1016.40	0.00
1016.68	0.00
1016.97	0.00
1017.25	0.00
1017.53	0.00
1017.82	0.00
1018.10	0.00
1018.38	0.00
1018.67	0.00
1018.95	0.00
1019.23	0.00
1019.51	0.00
1019.80	0.00
1020.08	0.00
1020.36	0.00
1020.64	0.00
1020.93	0.00
1021.21	0.00
1021.49	0.00
1021.77	0.00
1022.06	0.00
1022.34	0.00
1022.62	0.00
1022.90	0.00
1023.18	0.00
1023.47	0.00
1023.75	0.00
1024.03	0.00
1024.31	0.00
1024.59	0.00
1024.87	0.00
1025.16	0.00
1025.44	0.00
>>>>>End Processed Spectral Data<<<<<
